time,hand_accelerometer_x,hand_accelerometer_y,hand_accelerometer_z,hand_gyroscope_x,hand_gyroscope_y,hand_gyroscope_z,hand_magnetometer_x,hand_magnetometer_y,hand_magnetometer_z,ankle_accelerometer_x,ankle_accelerometer_y,ankle_accelerometer_z,ankle_gyroscope_x,ankle_gyroscope_y,ankle_gyroscope_z,ankle_magnetometer_x,ankle_magnetometer_y,ankle_magnetometer_z,chest_accelerometer_x,chest_accelerometer_y,chest_accelerometer_z,chest_gyroscope_x,chest_gyroscope_y,chest_gyroscope_z,chest_magnetometer_x,chest_magnetometer_y,chest_magnetometer_z
22:42.674,-0.13525390625,-1.89013671875,0.810546875,6.26373291015625,70.53375244140625,3.0670166015625,58.176312576312576,-7.946764346764346,50.07960927960928,-1.9072265625,-0.01220703125,0.376953125,-3.76129150390625,-3.173828125,0.06866455078125,16.193406593406593,-58.326251526251525,32.98656898656898,0.06201171875,2.00537109375,-0.38916015625,-1.35040283203125,0.579833984375,1.83868408203125,-54.577777777777776,32.536752136752135,14.993894993894994
22:43.551,0.21142578125,-1.9228515625,0.373046875,-4.5166015625,35.430908203125,-0.22125244140625,59.22588522588522,-7.496947496947497,46.93089133089133,-1.916015625,-0.06005859375,0.36572265625,-4.9896240234375,0.8544921875,-0.213623046875,16.043467643467643,-59.67570207570208,36.285225885225884,0.056640625,2.00341796875,-0.40283203125,-0.9002685546875,0.79345703125,1.9989013671875,-55.77728937728938,31.936996336996337,13.044688644688645
22:44.429,-0.1826171875,-1.87744140625,0.60009765625,-0.9307861328125,-9.25445556640625,2.75421142578125,58.326251526251525,-4.947985347985348,44.68180708180708,-1.93017578125,-0.03759765625,0.36376953125,-0.95367431640625,2.29644775390625,1.220703125,15.443711843711844,-60.57533577533577,35.38559218559219,0.0634765625,2.0078125,-0.39404296875,-0.92315673828125,0.98419189453125,1.861572265625,-54.577777777777776,32.536752136752135,14.993894993894994
22:45.306,-0.6533203125,-1.7900390625,0.36083984375,-0.823974609375,-2.25067138671875,0.80108642578125,58.176312576312576,-3.2986568986568985,47.68058608058608,-1.9052734375,-0.046875,0.39111328125,-2.99835205078125,-2.349853515625,0.1983642578125,14.394139194139193,-59.825641025641026,35.38559218559219,0.06298828125,2.0107421875,-0.3984375,-1.19781494140625,1.0528564453125,1.88446044921875,-52.928449328449325,31.936996336996337,15.143833943833943
22:46.232,-0.6533203125,-1.7900390625,0.36083984375,-1.2664794921875,0.67138671875,0.23651123046875,57.87643467643468,5.397802197802197,47.08083028083028,-1.927734375,-0.0517578125,0.4169921875,-2.105712890625,-0.41961669921875,1.2054443359375,16.043467643467643,-59.22588522588522,36.285225885225884,0.0595703125,1.99951171875,-0.38623046875,-1.0986328125,0.99945068359375,1.64031982421875,-54.877655677655675,31.787057387057384,14.244200244200243
22:47.159,-0.6875,-1.794921875,0.35888671875,-1.2664794921875,0.67138671875,0.23651123046875,58.476190476190474,5.697680097680098,47.380708180708176,-1.9130859375,-0.05078125,0.3896484375,-2.9449462890625,0.48828125,0.90789794921875,15.893528693528692,-58.026373626373626,38.234432234432234,0.06298828125,2.0126953125,-0.384765625,-0.83160400390625,1.02996826171875,2.08282470703125,-53.67814407814408,31.936996336996337,14.094261294261294
22:47.988,-0.68701171875,-1.79638671875,0.35400390625,-1.03759765625,-0.2288818359375,0.17547607421875,58.476190476190474,5.697680097680098,47.380708180708176,-1.904296875,-0.0400390625,0.36767578125,-4.47845458984375,-0.0152587890625,0.79345703125,16.043467643467643,-58.626129426129424,36.58510378510378,0.064453125,2.0087890625,-0.3994140625,-0.946044921875,1.0223388671875,1.64794921875,-54.577777777777776,33.88620268620269,13.944322344322345
22:48.816,-0.681640625,-1.79541015625,0.3720703125,-1.42669677734375,1.1138916015625,0.31280517578125,59.52576312576312,3.4485958485958483,45.88131868131868,-1.904296875,-0.0400390625,0.36767578125,-4.47845458984375,-0.0152587890625,0.79345703125,16.343345543345542,-59.975579975579976,37.33479853479853,0.064453125,2.0087890625,-0.3994140625,-0.946044921875,1.0223388671875,1.64794921875,-55.32747252747252,32.836630036630034,15.293772893772893
22:49.645,-0.68212890625,-1.7939453125,0.38232421875,-1.3885498046875,1.2054443359375,0.213623046875,59.37582417582417,5.097924297924298,46.18119658119658,-1.91064453125,-0.05712890625,0.41064453125,-3.70025634765625,-0.3509521484375,1.62506103515625,16.343345543345542,-59.975579975579976,37.33479853479853,0.06396484375,2.00537109375,-0.39208984375,-1.068115234375,1.0833740234375,1.89971923828125,-55.32747252747252,32.836630036630034,15.293772893772893
22:50.474,-0.6767578125,-1.79345703125,0.38330078125,-1.79290771484375,1.25885009765625,0.72479248046875,57.42661782661782,5.697680097680098,47.380708180708176,-1.90966796875,-0.05517578125,0.408203125,-2.655029296875,-0.98419189453125,1.8768310546875,16.343345543345542,-58.626129426129424,36.58510378510378,0.05810546875,2.00732421875,-0.39404296875,-1.13677978515625,1.06048583984375,1.9073486328125,-52.32869352869353,33.28644688644688,16.043467643467643
22:51.351,-0.6796875,-1.79931640625,0.3896484375,-1.2969970703125,1.60980224609375,0.1068115234375,59.52576312576312,3.8984126984126983,46.33113553113553,-1.92236328125,-0.048828125,0.4130859375,-4.0435791015625,1.35040283203125,1.25885009765625,17.54285714285714,-58.176312576312576,36.285225885225884,0.05615234375,2.0185546875,-0.38818359375,-1.07574462890625,1.06048583984375,1.7547607421875,-55.027594627594624,32.98656898656898,15.143833943833943
22:52.180,-0.6796875,-1.79931640625,0.3896484375,-1.5869140625,1.53350830078125,0.274658203125,58.626129426129424,5.847619047619047,46.48107448107448,-1.90380859375,-0.05517578125,0.39990234375,-3.71551513671875,-0.67901611328125,1.35040283203125,16.64322344322344,-57.57655677655677,35.835409035409036,0.0595703125,2.005859375,-0.39990234375,-1.24359130859375,1.1444091796875,1.7547607421875,-55.027594627594624,32.98656898656898,15.143833943833943
22:53.009,-0.66943359375,-1.7939453125,0.3896484375,-1.5869140625,1.53350830078125,0.274658203125,58.626129426129424,5.847619047619047,46.48107448107448,-1.91015625,-0.0537109375,0.38720703125,-2.5482177734375,2.44903564453125,1.13677978515625,16.193406593406593,-58.026373626373626,35.835409035409036,0.05908203125,1.99755859375,-0.396484375,-1.007080078125,0.48065185546875,1.82342529296875,-54.727716727716725,32.386813186813185,16.193406593406593
22:53.837,-0.67919921875,-1.80419921875,0.3876953125,-1.27410888671875,1.09100341796875,0.30517578125,59.52576312576312,4.947985347985348,47.68058608058608,-1.91015625,-0.0537109375,0.38720703125,-2.5482177734375,2.44903564453125,1.13677978515625,17.54285714285714,-58.626129426129424,36.285225885225884,0.05908203125,1.99755859375,-0.396484375,-1.007080078125,0.48065185546875,1.82342529296875,-54.877655677655675,32.536752136752135,13.194627594627594
22:54.666,-0.67138671875,-1.791015625,0.38232421875,-1.57928466796875,1.2969970703125,0.5950927734375,58.77606837606837,7.347008547008547,47.380708180708176,-1.9091796875,-0.06005859375,0.40283203125,-3.662109375,-1.25885009765625,1.4190673828125,17.54285714285714,-58.626129426129424,36.285225885225884,0.060546875,2.00732421875,-0.39111328125,-1.07574462890625,1.007080078125,1.80816650390625,-54.877655677655675,32.536752136752135,13.194627594627594
22:55.495,-0.6728515625,-1.7939453125,0.37353515625,-1.22833251953125,1.2969970703125,0.1068115234375,58.326251526251525,2.548962148962149,45.73137973137973,-1.91943359375,-0.0615234375,0.4072265625,-3.4637451171875,1.4190673828125,0.9918212890625,16.793162393162394,-57.87643467643468,37.33479853479853,0.0517578125,2.00927734375,-0.3916015625,-1.2359619140625,0.946044921875,1.708984375,-54.877655677655675,31.787057387057384,14.244200244200243
22:56.324,-0.671875,-1.7978515625,0.380859375,-1.24359130859375,-0.0457763671875,0.2593994140625,59.22588522588522,4.498168498168498,45.58144078144078,-1.9423828125,-0.0341796875,0.38232421875,-3.88336181640625,0.02288818359375,1.54876708984375,16.943101343101343,-59.52576312576312,36.135286935286935,0.05712890625,1.99853515625,-0.40625,-1.15203857421875,0.6866455078125,1.861572265625,-54.727716727716725,32.98656898656898,14.694017094017093
22:57.152,-0.671875,-1.7978515625,0.380859375,-1.24359130859375,-0.0457763671875,0.2593994140625,60.275457875457874,5.247863247863248,46.33113553113553,-1.90576171875,-0.0576171875,0.39599609375,-3.73077392578125,0.6256103515625,0.92315673828125,16.343345543345542,-59.975579975579976,36.285225885225884,0.05908203125,2.0087890625,-0.3876953125,-0.91552734375,0.87738037109375,2.0751953125,-55.027594627594624,32.686691086691084,14.394139194139193
22:57.981,-0.6767578125,-1.794921875,0.384765625,-1.18255615234375,1.40380859375,0.22125244140625,60.275457875457874,5.247863247863248,46.33113553113553,-1.93359375,-0.0595703125,0.39453125,-3.45611572265625,0.5950927734375,1.129150390625,16.343345543345542,-59.22588522588522,35.985347985347985,0.0625,2.00341796875,-0.396484375,-1.10626220703125,0.87738037109375,2.01416015625,-52.778510378510376,31.787057387057384,15.293772893772893
22:58.810,-0.67431640625,-1.7939453125,0.39697265625,-1.45721435546875,0.67901611328125,0.1678466796875,58.626129426129424,5.847619047619047,46.78095238095238,-1.93359375,-0.0595703125,0.39453125,-3.45611572265625,0.5950927734375,1.129150390625,17.992673992673993,-58.026373626373626,36.88498168498168,0.0625,2.00341796875,-0.396484375,-1.10626220703125,0.87738037109375,2.01416015625,-54.877655677655675,32.08693528693529,14.244200244200243
22:59.639,-0.68798828125,-1.79052734375,0.38623046875,-1.53350830078125,0.3814697265625,0.3662109375,59.37582417582417,5.097924297924298,46.78095238095238,-1.91455078125,-0.05810546875,0.40283203125,-1.89208984375,-0.75531005859375,1.22833251953125,17.992673992673993,-58.026373626373626,36.88498168498168,0.0595703125,2.00732421875,-0.390625,-1.48773193359375,0.9307861328125,1.89971923828125,-54.877655677655675,32.08693528693529,14.244200244200243
23:00.516,-0.6748046875,-1.79443359375,0.390625,-1.1749267578125,1.5106201171875,0.18310546875,59.52576312576312,5.247863247863248,45.28156288156288,-1.9033203125,-0.0556640625,0.40087890625,-5.62286376953125,2.43377685546875,0.98419189453125,16.64322344322344,-59.07594627594627,36.135286935286935,0.04638671875,2.005859375,-0.39453125,-1.15966796875,0.55694580078125,1.79290771484375,-54.12796092796093,33.58632478632479,16.043467643467643
23:01.443,-0.68212890625,-1.79296875,0.390625,-1.42669677734375,1.24359130859375,0.1678466796875,59.37582417582417,5.847619047619047,45.73137973137973,-1.91796875,-0.06787109375,0.4169921875,-2.4261474609375,-2.0751953125,1.01470947265625,16.043467643467643,-57.87643467643468,35.985347985347985,0.0673828125,2.00634765625,-0.3935546875,-0.9002685546875,0.9765625,1.85394287109375,-56.227106227106226,33.43638583638584,15.143833943833943
23:02.418,-0.67919921875,-1.798828125,0.38330078125,-1.42669677734375,0.48828125,0.22125244140625,57.57655677655677,6.897191697191697,48.43028083028083,-1.90673828125,-0.0634765625,0.39794921875,-4.57000732421875,1.76239013671875,1.1444091796875,18.142612942612942,-58.626129426129424,36.285225885225884,0.04931640625,2.00244140625,-0.39501953125,-1.1444091796875,0.67901611328125,1.45721435546875,-55.32747252747252,33.58632478632479,13.494505494505495
23:03.246,-0.67919921875,-1.798828125,0.38330078125,-1.3427734375,1.1444091796875,0.1068115234375,59.22588522588522,4.947985347985348,46.63101343101343,-1.91796875,-0.05126953125,0.39794921875,-3.753662109375,-1.2969970703125,0.86212158203125,16.193406593406593,-57.57655677655677,37.48473748473749,0.056640625,2.01318359375,-0.400390625,-0.9613037109375,1.068115234375,1.77001953125,-54.12796092796093,32.836630036630034,15.593650793650793
23:04.124,-0.68603515625,-1.80078125,0.38525390625,-1.3427734375,1.1444091796875,0.1068115234375,58.476190476190474,4.1982905982905985,46.33113553113553,-1.9111328125,-0.06103515625,0.39599609375,-3.0670166015625,-0.41961669921875,1.5716552734375,16.193406593406593,-58.77606837606837,35.835409035409036,0.05419921875,2.0029296875,-0.39501953125,-0.91552734375,1.2359619140625,1.9073486328125,-53.67814407814408,31.936996336996337,14.694017094017093
23:04.953,-0.67138671875,-1.78955078125,0.3896484375,-1.678466796875,1.2054443359375,0.244140625,58.476190476190474,4.1982905982905985,46.33113553113553,-1.9111328125,-0.06103515625,0.39599609375,-3.42559814453125,-0.030517578125,0.89263916015625,17.54285714285714,-58.92600732600732,36.285225885225884,0.05419921875,2.0029296875,-0.39501953125,-1.0986328125,0.93841552734375,1.89208984375,-54.877655677655675,31.787057387057384,14.993894993894994
23:05.781,-0.68359375,-1.79248046875,0.384765625,-1.708984375,1.13677978515625,-0.1068115234375,58.476190476190474,4.947985347985348,49.62979242979243,-1.9169921875,-0.05078125,0.38525390625,-3.42559814453125,-0.030517578125,0.89263916015625,16.64322344322344,-58.77606837606837,37.18485958485958,0.05322265625,2.00439453125,-0.39453125,-1.0986328125,0.93841552734375,1.89208984375,-53.82808302808303,32.536752136752135,16.043467643467643
23:06.610,-0.69140625,-1.79541015625,0.37548828125,-1.6021728515625,1.495361328125,0.18310546875,58.92600732600732,6.147496947496947,47.83052503052503,-1.91943359375,-0.0625,0.42041015625,-2.7618408203125,-1.9683837890625,1.10626220703125,16.64322344322344,-58.77606837606837,37.18485958485958,0.05859375,2.01611328125,-0.38330078125,-0.946044921875,0.81634521484375,1.59454345703125,-53.82808302808303,32.536752136752135,16.043467643467643
23:07.439,-0.69580078125,-1.79443359375,0.37255859375,-1.4801025390625,0.41961669921875,0.3509521484375,59.37582417582417,4.348229548229548,48.43028083028083,-1.89599609375,-0.060546875,0.42138671875,-0.9002685546875,0.2899169921875,0.5645751953125,17.242979242979242,-59.52576312576312,38.234432234432234,0.0556640625,2.00830078125,-0.39208984375,-1.18255615234375,0.92315673828125,1.7242431640625,-55.77728937728938,30.137728937728937,15.743589743589743
23:08.316,-0.677734375,-1.77685546875,0.3779296875,-1.21307373046875,1.800537109375,0.12969970703125,60.425396825396824,4.048351648351648,48.88009768009768,-1.91552734375,-0.05517578125,0.4169921875,-2.12860107421875,0.12969970703125,0.5035400390625,16.043467643467643,-58.176312576312576,37.33479853479853,0.0556640625,2.00537109375,-0.392578125,-1.18255615234375,0.823974609375,1.79290771484375,-54.577777777777776,31.487179487179485,15.293772893772893
23:09.145,-0.677734375,-1.77685546875,0.3779296875,-1.21307373046875,1.800537109375,0.12969970703125,58.92600732600732,4.048351648351648,46.78095238095238,-1.92138671875,-0.06640625,0.41162109375,-3.45611572265625,0.3204345703125,1.35040283203125,15.743589743589743,-59.22588522588522,35.23565323565323,0.064453125,2.00341796875,-0.3974609375,-1.03759765625,0.80108642578125,1.77001953125,-55.32747252747252,32.08693528693529,14.544078144078144
23:10.023,-0.67822265625,-1.8017578125,0.39013671875,-1.3427734375,0.885009765625,0.030517578125,58.92600732600732,4.048351648351648,46.78095238095238,-1.91943359375,-0.05224609375,0.39697265625,-1.9989013671875,2.54058837890625,1.10626220703125,16.343345543345542,-58.176312576312576,36.58510378510378,0.0576171875,2.005859375,-0.40087890625,-1.220703125,0.77056884765625,1.80816650390625,-55.32747252747252,33.28644688644688,14.993894993894994
23:10.852,-0.68310546875,-1.7998046875,0.3779296875,-1.13677978515625,0.09918212890625,0.2899169921875,58.176312576312576,5.247863247863248,48.28034188034188,-1.91943359375,-0.05224609375,0.39697265625,-1.9989013671875,2.54058837890625,1.10626220703125,17.093040293040293,-58.626129426129424,36.285225885225884,0.0576171875,2.005859375,-0.40087890625,-1.220703125,0.77056884765625,1.80816650390625,-54.877655677655675,32.536752136752135,15.293772893772893
23:11.680,-0.6806640625,-1.79443359375,0.38818359375,-1.62506103515625,1.12152099609375,0.28228759765625,59.37582417582417,5.847619047619047,47.53064713064713,-1.9306640625,-0.05810546875,0.40478515625,-4.241943359375,-0.8697509765625,0.8087158203125,17.093040293040293,-58.626129426129424,36.285225885225884,0.05419921875,2.005859375,-0.3935546875,-1.15203857421875,1.0223388671875,1.7852783203125,-54.877655677655675,32.536752136752135,15.293772893772893
23:12.509,-0.68505859375,-1.79931640625,0.3935546875,-1.1444091796875,1.02996826171875,0.335693359375,59.37582417582417,2.998778998778999,46.48107448107448,-1.91845703125,-0.05859375,0.41259765625,-2.2735595703125,1.09100341796875,1.02996826171875,16.793162393162394,-58.92600732600732,36.58510378510378,0.0634765625,1.99755859375,-0.40771484375,-1.01470947265625,0.72479248046875,1.5869140625,-55.027594627594624,33.73626373626374,15.143833943833943
23:13.338,-0.6640625,-1.80322265625,0.38818359375,-1.40380859375,0.98419189453125,0.0762939453125,59.37582417582417,4.048351648351648,47.83052503052503,-1.91650390625,-0.04833984375,0.40771484375,-2.40325927734375,0.72479248046875,1.06048583984375,17.692796092796094,-60.275457875457874,35.835409035409036,0.0556640625,2.00634765625,-0.40185546875,-1.0833740234375,0.67901611328125,1.79290771484375,-55.027594627594624,32.98656898656898,15.443711843711844
23:14.166,-0.6640625,-1.80322265625,0.38818359375,-1.68609619140625,1.33514404296875,0.0152587890625,59.975579975579976,5.847619047619047,48.13040293040293,-1.92919921875,-0.06103515625,0.40673828125,-3.631591796875,-0.81634521484375,1.42669677734375,16.64322344322344,-60.57533577533577,35.38559218559219,0.05810546875,2.0,-0.40380859375,-1.220703125,0.96893310546875,1.80816650390625,-54.727716727716725,32.686691086691084,13.344566544566543
23:14.995,-0.6728515625,-1.79638671875,0.39208984375,-1.68609619140625,1.33514404296875,0.0152587890625,59.975579975579976,5.847619047619047,48.13040293040293,-1.92041015625,-0.0654296875,0.41552734375,-3.12042236328125,-0.23651123046875,1.04522705078125,17.242979242979242,-58.77606837606837,36.435164835164834,0.05712890625,2.01416015625,-0.39697265625,-1.09100341796875,0.99945068359375,1.83868408203125,-54.577777777777776,32.08693528693529,16.343345543345542
23:15.873,-0.67041015625,-1.798828125,0.3779296875,-1.13677978515625,0.93841552734375,0.0457763671875,58.626129426129424,5.097924297924298,47.53064713064713,-1.92041015625,-0.0654296875,0.41552734375,-2.4566650390625,0.67901611328125,0.9002685546875,16.943101343101343,-60.275457875457874,38.234432234432234,0.05712890625,2.01416015625,-0.39697265625,-1.0223388671875,1.007080078125,1.65557861328125,-54.727716727716725,32.98656898656898,15.443711843711844
23:16.750,-0.67724609375,-1.80078125,0.38134765625,-1.31988525390625,1.16729736328125,0.35858154296875,59.37582417582417,5.847619047619047,46.48107448107448,-1.9326171875,-0.0556640625,0.40771484375,-2.4566650390625,0.67901611328125,0.9002685546875,15.893528693528692,-60.275457875457874,35.835409035409036,0.05078125,2.00390625,-0.39599609375,-1.0223388671875,1.007080078125,1.65557861328125,-55.027594627594624,32.386813186813185,13.644444444444444
23:17.641,-0.689453125,-1.791015625,0.38134765625,-1.39617919921875,1.190185546875,0.3509521484375,59.52576312576312,6.747252747252747,49.62979242979243,-1.88818359375,-0.048828125,0.39990234375,-2.227783203125,1.07574462890625,0.8087158203125,15.893528693528692,-60.275457875457874,35.835409035409036,0.0625,2.0048828125,-0.392578125,-1.19781494140625,0.86212158203125,1.6937255859375,-55.027594627594624,32.386813186813185,13.644444444444444
23:18.456,-0.6708984375,-1.7958984375,0.4013671875,-1.30462646484375,1.03759765625,0.32806396484375,59.37582417582417,5.097924297924298,47.53064713064713,-1.90771484375,-0.05859375,0.42822265625,-1.76239013671875,0.70953369140625,1.12152099609375,16.64322344322344,-60.57533577533577,36.435164835164834,0.0537109375,2.00537109375,-0.3935546875,-1.15966796875,0.93841552734375,1.7547607421875,-55.47741147741147,31.936996336996337,15.443711843711844
23:19.285,-0.4189453125,-1.85009765625,0.6328125,-12.725830078125,-1.80816650390625,5.67626953125,59.825641025641026,5.247863247863248,48.73015873015873,-1.9248046875,-0.052734375,0.3994140625,-1.42669677734375,-0.43487548828125,3.21197509765625,16.193406593406593,-60.57533577533577,37.18485958485958,0.05322265625,2.00244140625,-0.3994140625,-0.96893310546875,0.1373291015625,1.53350830078125,-53.67814407814408,32.686691086691084,15.443711843711844
23:20.163,-0.4189453125,-1.85009765625,0.6328125,-12.725830078125,-1.80816650390625,5.67626953125,60.275457875457874,2.399023199023199,50.37948717948718,-1.89794921875,-0.02294921875,0.4384765625,-3.25775146484375,0.7171630859375,1.53350830078125,16.943101343101343,-59.07594627594627,36.88498168498168,0.06396484375,2.00146484375,-0.39794921875,-1.312255859375,1.0528564453125,1.9989013671875,-53.228327228327224,33.73626373626374,15.443711843711844
23:20.992,0.0751953125,-1.81982421875,0.67822265625,-22.27020263671875,-57.7239990234375,-2.29644775390625,60.275457875457874,2.399023199023199,50.37948717948718,-1.9326171875,-0.02685546875,0.369140625,-0.9002685546875,1.15203857421875,2.23541259765625,16.193406593406593,-59.07594627594627,37.934554334554335,0.0517578125,2.00732421875,-0.38623046875,-1.1138916015625,0.83160400390625,1.60980224609375,-53.82808302808303,33.88620268620269,14.993894993894994
23:21.820,-0.1748046875,-1.68359375,1.0595703125,-2.46429443359375,5.92041015625,0.0457763671875,58.92600732600732,-5.547741147741148,53.228327228327224,-1.9326171875,-0.02685546875,0.369140625,-0.9002685546875,1.15203857421875,2.23541259765625,16.043467643467643,-60.425396825396824,36.285225885225884,0.0517578125,2.00732421875,-0.38623046875,-1.1138916015625,0.83160400390625,1.60980224609375,-53.97802197802198,32.386813186813185,16.49328449328449
23:22.746,-0.21484375,-1.66748046875,1.04931640625,-0.89263916015625,1.96075439453125,0.8392333984375,58.626129426129424,-1.6493284493284492,59.37582417582417,-1.923828125,-0.02734375,0.38916015625,-3.5247802734375,-1.7547607421875,0.80108642578125,16.043467643467643,-60.425396825396824,36.285225885225884,0.0576171875,2.013671875,-0.40087890625,-1.27410888671875,0.99945068359375,1.86920166015625,-53.97802197802198,32.386813186813185,16.49328449328449
23:23.624,-0.2470703125,-1.67919921875,1.03173828125,-1.35040283203125,1.129150390625,0.1373291015625,56.526984126984125,-1.6493284493284492,61.17509157509157,-1.9189453125,-0.04345703125,0.45654296875,-2.99835205078125,0.6561279296875,1.6326904296875,16.343345543345542,-58.626129426129424,34.186080586080585,0.0537109375,2.0078125,-0.388671875,-0.84686279296875,0.89263916015625,2.0751953125,-54.12796092796093,33.28644688644688,13.944322344322345
23:24.502,-0.24755859375,-1.67431640625,1.04248046875,-1.251220703125,0.19073486328125,0.42724609375,58.476190476190474,-2.249084249084249,60.57533577533577,-1.9208984375,-0.02490234375,0.39501953125,-1.83868408203125,2.22015380859375,0.823974609375,16.043467643467643,-58.626129426129424,37.03492063492063,0.05859375,2.00439453125,-0.3955078125,-0.96893310546875,0.54168701171875,1.65557861328125,-55.62735042735043,32.836630036630034,14.244200244200243
23:25.330,-0.26171875,-1.6708984375,1.0322265625,-1.24359130859375,1.21307373046875,0.08392333984375,56.676923076923075,-2.548962148962149,61.624908424908426,-1.92333984375,-0.052734375,0.3984375,-3.71551513671875,-1.6632080078125,1.40380859375,15.743589743589743,-58.92600732600732,37.634676434676436,0.056640625,2.005859375,-0.38134765625,-1.04522705078125,0.89263916015625,1.708984375,-55.77728937728938,31.637118437118435,14.394139194139193
23:26.159,-0.26171875,-1.6708984375,1.0322265625,-1.24359130859375,1.21307373046875,0.08392333984375,57.27667887667887,-1.6493284493284492,61.47496947496947,-1.91455078125,-0.0390625,0.40673828125,-2.40325927734375,-1.89208984375,0.75531005859375,15.893528693528692,-59.825641025641026,36.435164835164834,0.0595703125,2.00390625,-0.38330078125,-1.18255615234375,0.9765625,1.6632080078125,-54.12796092796093,32.08693528693529,14.993894993894994
23:26.988,-0.26318359375,-1.6806640625,1.02734375,-1.4190673828125,0.93841552734375,0.1220703125,57.27667887667887,-1.6493284493284492,61.47496947496947,-1.921875,-0.0537109375,0.41748046875,-2.66265869140625,0.6866455078125,0.67901611328125,15.293772893772893,-58.176312576312576,37.33479853479853,0.06103515625,2.00390625,-0.38916015625,-1.02996826171875,1.0833740234375,1.91497802734375,-55.92722832722833,32.536752136752135,13.494505494505495
23:27.816,-0.2587890625,-1.6708984375,1.0302734375,-1.251220703125,1.068115234375,0.32806396484375,57.72649572649573,-2.249084249084249,61.624908424908426,-1.921875,-0.0537109375,0.41748046875,-2.66265869140625,0.6866455078125,0.67901611328125,15.293772893772893,-57.87643467643468,37.03492063492063,0.06103515625,2.00390625,-0.38916015625,-1.02996826171875,1.0833740234375,1.91497802734375,-54.577777777777776,32.536752136752135,15.293772893772893
23:28.645,-0.27099609375,-1.67626953125,1.02294921875,-1.3580322265625,1.0833740234375,0.2288818359375,58.92600732600732,-0.8996336996336995,61.17509157509157,-1.8896484375,-0.03173828125,0.4150390625,-2.26593017578125,0.5645751953125,0.823974609375,15.293772893772893,-57.87643467643468,37.03492063492063,0.0517578125,2.005859375,-0.38427734375,-0.87738037109375,0.7476806640625,1.64794921875,-54.577777777777776,32.536752136752135,15.293772893772893
23:29.474,-0.25146484375,-1.6728515625,1.03515625,-1.45721435546875,0.885009765625,0.52642822265625,59.22588522588522,-2.249084249084249,61.924786324786325,-1.91650390625,-0.04443359375,0.44482421875,-1.953125,0.43487548828125,1.16729736328125,17.242979242979242,-58.326251526251525,37.934554334554335,0.05224609375,2.005859375,-0.39599609375,-0.99945068359375,0.96893310546875,1.8310546875,-54.577777777777776,32.536752136752135,14.544078144078144
23:30.303,-0.259765625,-1.673828125,1.044921875,-1.35040283203125,0.8392333984375,0.0457763671875,58.626129426129424,-2.399023199023199,61.774847374847376,-1.916015625,-0.0400390625,0.39501953125,-3.0670166015625,-1.86920166015625,1.28173828125,17.093040293040293,-58.92600732600732,37.33479853479853,0.05810546875,2.01513671875,-0.392578125,-1.18255615234375,1.06048583984375,2.05230712890625,-54.577777777777776,33.58632478632479,16.043467643467643
23:31.132,-0.259765625,-1.673828125,1.044921875,-1.35040283203125,0.8392333984375,0.0457763671875,56.227106227106226,-1.3494505494505493,60.72527472527472,-1.91259765625,-0.03759765625,0.43994140625,-1.9378662109375,-1.8310546875,1.04522705078125,17.242979242979242,-58.77606837606837,36.435164835164834,0.05322265625,2.0078125,-0.39794921875,-1.129150390625,0.92315673828125,1.94549560546875,-55.027594627594624,32.386813186813185,15.743589743589743
23:31.960,-0.24169921875,-1.6748046875,1.0263671875,-0.946044921875,1.3580322265625,0.14495849609375,56.227106227106226,-1.3494505494505493,60.72527472527472,-1.91259765625,-0.03759765625,0.43994140625,-2.49481201171875,-1.220703125,1.18255615234375,16.943101343101343,-58.026373626373626,37.48473748473749,0.05322265625,2.0078125,-0.39794921875,-0.9613037109375,0.823974609375,1.77001953125,-53.82808302808303,32.536752136752135,16.043467643467643
23:32.789,-0.259765625,-1.67626953125,1.02001953125,-1.57928466796875,0.7781982421875,0.08392333984375,57.42661782661782,-0.4498168498168498,61.32503052503052,-1.92138671875,-0.05517578125,0.4443359375,-2.49481201171875,-1.220703125,1.18255615234375,17.842735042735043,-58.626129426129424,37.33479853479853,0.06005859375,2.0087890625,-0.396484375,-0.9613037109375,0.823974609375,1.77001953125,-54.577777777777776,33.28644688644688,15.593650793650793
23:33.618,-0.2685546875,-1.67333984375,1.03076171875,-1.373291015625,1.0833740234375,0.28228759765625,58.77606837606837,-3.2986568986568985,60.87521367521367,-1.91455078125,-0.02880859375,0.38916015625,-3.39508056640625,0.34332275390625,1.27410888671875,17.842735042735043,-58.626129426129424,37.33479853479853,0.05810546875,2.00146484375,-0.39892578125,-1.0528564453125,1.28173828125,1.44195556640625,-54.577777777777776,33.28644688644688,15.593650793650793
23:34.446,-0.26513671875,-1.677734375,1.02587890625,-1.434326171875,0.80108642578125,0.02288818359375,58.176312576312576,-1.4993894993894994,60.87521367521367,-1.90283203125,-0.03955078125,0.41162109375,-3.3721923828125,-0.06103515625,0.52642822265625,16.043467643467643,-57.87643467643468,35.985347985347985,0.05419921875,2.0126953125,-0.39599609375,-1.190185546875,0.58746337890625,1.70135498046875,-54.427838827838826,33.43638583638584,15.743589743589743
23:35.275,-0.26220703125,-1.67529296875,1.009765625,-1.51824951171875,1.68609619140625,0.09918212890625,57.42661782661782,-0.7496947496947497,62.67448107448107,-1.91552734375,-0.05322265625,0.439453125,-1.54876708984375,-1.13677978515625,2.06756591796875,16.193406593406593,-60.275457875457874,37.18485958485958,0.06103515625,2.01025390625,-0.39892578125,-1.007080078125,0.7476806640625,1.73187255859375,-53.52820512820512,32.08693528693529,15.593650793650793
23:36.104,-0.26220703125,-1.67529296875,1.009765625,-1.51824951171875,1.68609619140625,0.09918212890625,58.77606837606837,-2.249084249084249,62.37460317460317,-1.91796875,-0.0380859375,0.4462890625,-1.56402587890625,2.02178955078125,1.27410888671875,18.142612942612942,-59.67570207570208,38.38437118437118,0.05615234375,2.01318359375,-0.38330078125,-1.007080078125,0.732421875,1.9073486328125,-54.12796092796093,31.487179487179485,16.343345543345542
23:36.932,-0.25048828125,-1.677734375,1.0341796875,-1.36566162109375,0.98419189453125,0.45013427734375,58.77606837606837,-2.249084249084249,62.37460317460317,-1.91796875,-0.0380859375,0.4462890625,-3.39508056640625,0.3814697265625,1.36566162109375,15.893528693528692,-57.57655677655677,36.88498168498168,0.05615234375,2.01318359375,-0.38330078125,-1.15203857421875,1.07574462890625,1.9683837890625,-56.676923076923075,32.536752136752135,14.544078144078144
23:37.761,-0.25830078125,-1.67529296875,1.0224609375,-1.31988525390625,1.07574462890625,0.38909912109375,57.87643467643468,-3.1487179487179486,61.47496947496947,-1.9130859375,-0.044921875,0.4228515625,-3.39508056640625,0.3814697265625,1.36566162109375,15.893528693528692,-57.57655677655677,36.88498168498168,0.05859375,2.00390625,-0.40576171875,-1.15203857421875,1.07574462890625,1.9683837890625,-56.676923076923075,32.536752136752135,14.544078144078144
23:38.590,-0.25830078125,-1.6796875,1.01708984375,-1.3275146484375,0.89263916015625,0.1373291015625,56.826862026862024,-1.3494505494505493,62.52454212454212,-1.91162109375,-0.04052734375,0.42431640625,-3.204345703125,0.58746337890625,1.1444091796875,15.743589743589743,-58.626129426129424,37.634676434676436,0.0576171875,2.00341796875,-0.38720703125,-1.25885009765625,0.93841552734375,1.9989013671875,-55.32747252747252,31.037362637362637,14.993894993894994
23:39.419,-0.265625,-1.67919921875,1.02490234375,-1.3580322265625,1.15203857421875,0.14495849609375,58.77606837606837,-2.848840048840049,60.87521367521367,-1.9296875,-0.05126953125,0.44482421875,-2.6397705078125,1.251220703125,0.5340576171875,16.193406593406593,-59.07594627594627,38.234432234432234,0.0478515625,2.00390625,-0.39794921875,-0.93841552734375,0.9765625,1.800537109375,-55.62735042735043,33.28644688644688,14.993894993894994
23:40.248,-0.265625,-1.67919921875,1.02490234375,-1.04522705078125,1.38092041015625,-0.0457763671875,58.176312576312576,-0.7496947496947497,61.624908424908426,-1.896484375,-0.033203125,0.419921875,-2.0904541015625,0.48828125,0.46539306640625,17.54285714285714,-57.87643467643468,37.03492063492063,0.06103515625,1.9951171875,-0.390625,-1.007080078125,0.72479248046875,1.67083740234375,-53.67814407814408,34.186080586080585,16.193406593406593
23:41.077,-0.2744140625,-1.68603515625,1.01513671875,-1.04522705078125,1.38092041015625,-0.0457763671875,56.97680097680097,-1.4993894993894994,62.37460317460317,-1.9033203125,-0.0400390625,0.43212890625,-3.0975341796875,0.57220458984375,0.78582763671875,16.64322344322344,-58.326251526251525,37.48473748473749,0.05029296875,2.0068359375,-0.39404296875,-1.373291015625,0.885009765625,1.62506103515625,-55.027594627594624,32.386813186813185,15.143833943833943
23:41.905,-0.26513671875,-1.677734375,1.03369140625,-1.3275146484375,0.6561279296875,0.06866455078125,56.97680097680097,-1.4993894993894994,62.37460317460317,-1.9033203125,-0.0400390625,0.43212890625,-2.31170654296875,-0.09918212890625,1.3427734375,17.54285714285714,-59.22588522588522,38.38437118437118,0.05029296875,2.0068359375,-0.39404296875,-1.45721435546875,0.60272216796875,1.54876708984375,-54.877655677655675,32.08693528693529,15.293772893772893
23:42.734,-0.248046875,-1.673828125,1.03466796875,-2.12860107421875,0.84686279296875,0.46539306640625,58.476190476190474,-2.548962148962149,61.32503052503052,-1.89892578125,-0.05224609375,0.4267578125,-2.31170654296875,-0.09918212890625,1.3427734375,17.54285714285714,-59.22588522588522,38.38437118437118,0.05224609375,2.0029296875,-0.39990234375,-1.45721435546875,0.60272216796875,1.54876708984375,-54.877655677655675,32.08693528693529,15.293772893772893
23:43.563,-0.2529296875,-1.68310546875,1.025390625,-1.3885498046875,1.068115234375,0.030517578125,57.27667887667887,-0.5997557997557997,60.72527472527472,-1.9111328125,-0.04638671875,0.44189453125,-2.38800048828125,-0.701904296875,1.53350830078125,17.242979242979242,-58.77606837606837,35.38559218559219,0.05517578125,2.00830078125,-0.38134765625,-1.2359619140625,1.007080078125,1.6326904296875,-55.47741147741147,32.386813186813185,16.49328449328449
23:44.406,1.0556640625,-1.21044921875,1.673828125,74.4476318359375,68.26019287109375,-101.72271728515625,57.57655677655677,-1.3494505494505493,60.425396825396824,-1.8271484375,-0.056640625,0.58837890625,-1.068115234375,7.7667236328125,-2.34222412109375,17.54285714285714,-59.975579975579976,36.285225885225884,0.04345703125,2.00927734375,-0.38818359375,-0.0152587890625,0.6866455078125,1.220703125,-55.027594627594624,32.386813186813185,16.193406593406593
23:45.220,1.0556640625,-1.21044921875,1.673828125,1.7547607421875,0.1983642578125,-42.61016845703125,33.28644688644688,-13.494505494505495,69.57167277167277,-1.8916015625,-0.01953125,0.42822265625,-1.2054443359375,8.76617431640625,0.84686279296875,15.893528693528692,-59.52576312576312,43.78217338217338,0.03515625,2.001953125,-0.40234375,-1.28936767578125,0.732421875,1.3580322265625,-55.47741147741147,32.98656898656898,16.49328449328449
23:46.049,0.7470703125,-0.9765625,1.32568359375,1.7547607421875,0.1983642578125,-42.61016845703125,33.28644688644688,-13.494505494505495,69.57167277167277,-1.95263671875,-0.00537109375,0.1025390625,-1.983642578125,2.78472900390625,3.692626953125,15.293772893772893,-58.92600732600732,34.186080586080585,0.03369140625,2.0029296875,-0.39892578125,-1.16729736328125,0.0,1.007080078125,-53.67814407814408,32.386813186813185,16.793162393162394
23:46.878,1.47509765625,0.1494140625,1.685546875,-4.08935546875,1.64794921875,-5.18798828125,25.78949938949939,-19.49206349206349,64.47374847374847,-1.95263671875,-0.00537109375,0.1025390625,-0.8087158203125,7.99560546875,1.54876708984375,17.842735042735043,-58.92600732600732,25.03980463980464,0.03369140625,2.0029296875,-0.39892578125,-0.6866455078125,2.9296875,2.98309326171875,-53.82808302808303,33.28644688644688,15.293772893772893
23:47.706,1.39892578125,-0.04443359375,1.642578125,-16.4337158203125,-0.5645751953125,31.02874755859375,5.847619047619047,-22.79072039072039,58.626129426129424,-1.990234375,-0.033203125,-0.14306640625,-0.8087158203125,7.99560546875,1.54876708984375,17.842735042735043,-58.92600732600732,25.03980463980464,0.01513671875,1.99853515625,-0.40380859375,-0.6866455078125,2.9296875,2.98309326171875,-53.82808302808303,33.28644688644688,15.293772893772893
23:48.584,0.89306640625,-0.13671875,1.9521484375,-7.20977783203125,-21.40045166015625,-1.39617919921875,13.044688644688645,-23.24053724053724,56.227106227106226,-1.962890625,0.01318359375,-0.2021484375,-4.974365234375,-5.6304931640625,-0.457763671875,14.993894993894994,-59.22588522588522,16.943101343101343,0.02099609375,2.0048828125,-0.421875,-1.45721435546875,0.60272216796875,1.74713134765625,-53.67814407814408,32.686691086691084,15.143833943833943
23:49.413,-0.6416015625,-0.6796875,2.125,25.81024169921875,46.7071533203125,27.740478515625,20.54163614163614,-18.742368742368743,61.17509157509157,-1.9453125,-0.21484375,0.43212890625,19.622802734375,-23.21624755859375,4.2266845703125,16.043467643467643,-60.72527472527472,16.943101343101343,0.1455078125,2.1728515625,-0.36669921875,1.739501953125,15.167236328125,4.8828125,-53.67814407814408,31.936996336996337,15.443711843711844
23:50.241,-0.6416015625,-0.6796875,2.125,0.86212158203125,5.21087646484375,2.0751953125,21.59120879120879,-8.396581196581197,71.37094017094017,-1.85986328125,-0.10791015625,0.61865234375,-11.57379150390625,-17.303466796875,0.86212158203125,15.893528693528692,-58.326251526251525,33.73626373626374,0.9609375,1.54833984375,-0.33154296875,-9.4451904296875,-6.72149658203125,50.7659912109375,-53.97802197802198,31.187301587301587,11.995115995115995
23:51.071,-0.20947265625,-0.00390625,2.00634765625,0.86212158203125,5.21087646484375,2.0751953125,31.487179487179485,2.548962148962149,63.12429792429792,-1.81103515625,0.02392578125,0.68115234375,-1.739501953125,1.35040283203125,2.7923583984375,15.893528693528692,-57.57655677655677,42.43272283272283,1.58740234375,1.2490234375,-0.43408203125,-8.59832763671875,-2.6702880859375,1.007080078125,-57.57655677655677,10.195848595848595,14.694017094017093
23:51.899,-0.70068359375,-0.0595703125,1.8095703125,-1.18255615234375,56.15997314453125,12.87841796875,31.487179487179485,2.548962148962149,63.12429792429792,-1.81103515625,0.02392578125,0.68115234375,-7.82012939453125,2.79998779296875,2.1209716796875,12.744810744810744,-59.975579975579976,47.53064713064713,1.58740234375,1.2490234375,-0.43408203125,-0.9613037109375,0.7171630859375,2.0751953125,-55.77728937728938,5.847619047619047,17.242979242979242
23:52.777,0.658203125,-0.783203125,1.47509765625,31.27288818359375,-4.41741943359375,-66.0858154296875,26.539194139194137,12.594871794871795,67.62246642246642,-1.8291015625,-0.15380859375,0.77392578125,-7.82012939453125,2.79998779296875,2.1209716796875,14.544078144078144,-59.22588522588522,49.92967032967033,1.6171875,1.2294921875,-0.380859375,-0.9613037109375,0.7171630859375,2.0751953125,-54.877655677655675,5.697680097680098,18.44249084249084
23:53.605,0.712890625,-0.72021484375,2.484375,25.87890625,-49.7894287109375,-64.15557861328125,33.58632478632479,-17.692796092796094,84.56556776556776,-1.7763671875,-0.005859375,0.7265625,6.0272216796875,-5.47027587890625,1.373291015625,14.544078144078144,-59.22588522588522,49.92967032967033,1.61572265625,1.23486328125,-0.419921875,-0.579833984375,-0.86212158203125,2.288818359375,-54.877655677655675,5.697680097680098,18.44249084249084
23:54.434,0.64111328125,-0.0283203125,1.953125,4.3792724609375,8.3770751953125,5.9814453125,7.047130647130647,-17.842735042735043,65.37338217338217,-1.90771484375,-0.04443359375,0.587890625,-8.47625732421875,11.45172119140625,0.152587890625,15.143833943833943,-58.77606837606837,46.33113553113553,1.603515625,1.2314453125,-0.43798828125,-0.25177001953125,2.1820068359375,1.80816650390625,-55.47741147741147,5.547741147741148,18.892307692307693
23:55.263,0.498046875,-0.12646484375,1.80419921875,-41.31317138671875,65.10162353515625,-84.77020263671875,7.047130647130647,-18.29255189255189,60.87521367521367,-1.87353515625,-0.06787109375,0.53466796875,-4.02069091796875,-4.79888916015625,-3.6773681640625,14.694017094017093,-58.026373626373626,42.13284493284493,1.58544921875,1.24755859375,-0.43994140625,-2.3345947265625,-0.06103515625,1.93023681640625,-56.826862026862024,6.297435897435897,16.49328449328449
23:56.092,0.498046875,-0.12646484375,1.80419921875,-41.31317138671875,65.10162353515625,-84.77020263671875,9.146275946275946,-16.49328449328449,62.67448107448107,-1.9970703125,-0.06005859375,0.5966796875,3.6468505859375,-3.77655029296875,0.8544921875,15.743589743589743,-60.72527472527472,43.03247863247863,1.58740234375,1.23291015625,-0.4326171875,-1.03759765625,0.63323974609375,1.2054443359375,-56.826862026862024,5.847619047619047,17.54285714285714
23:56.920,0.126953125,-0.75537109375,2.017578125,-2.3193359375,-21.881103515625,2.1514892578125,9.146275946275946,-16.49328449328449,62.67448107448107,-1.9970703125,-0.06005859375,0.5966796875,-2.197265625,6.2713623046875,1.21307373046875,16.64322344322344,-59.07594627594627,39.583882783882785,1.58740234375,1.23291015625,-0.4326171875,-0.87738037109375,0.89263916015625,1.24359130859375,-53.67814407814408,6.297435897435897,17.842735042735043
23:58.212,0.27490234375,-0.61376953125,1.91748046875,-1.51824951171875,-3.753662109375,0.518798828125,16.49328449328449,-13.194627594627594,68.37216117216117,-1.95654296875,-0.0634765625,0.21435546875,-3.05938720703125,0.34332275390625,0.946044921875,17.842735042735043,-58.92600732600732,32.386813186813185,1.60595703125,1.2216796875,-0.45703125,0.05340576171875,0.51116943359375,2.06756591796875,-57.42661782661782,7.496947496947497,16.64322344322344
23:59.017,0.1884765625,-0.6083984375,1.9287109375,-1.51824951171875,-3.753662109375,0.518798828125,16.49328449328449,-13.194627594627594,68.37216117216117,-1.96533203125,-0.0517578125,0.24609375,-3.3416748046875,-3.0670166015625,1.953125,17.842735042735043,-58.176312576312576,30.737484737484735,1.60009765625,1.2197265625,-0.45849609375,-0.946044921875,0.45013427734375,1.5106201171875,-55.77728937728938,6.297435897435897,17.54285714285714
23:59.894,0.20654296875,-0.60791015625,1.95263671875,-1.12152099609375,0.8697509765625,0.3509521484375,16.193406593406593,-11.095482295482295,70.77118437118438,-1.96533203125,-0.0517578125,0.24609375,-3.0975341796875,-1.3885498046875,0.6561279296875,17.54285714285714,-57.87643467643468,28.638339438339436,1.60009765625,1.2197265625,-0.45849609375,-0.81634521484375,0.9002685546875,1.88446044921875,-56.227106227106226,5.547741147741148,16.193406593406593
24:00.723,0.21728515625,-0.603515625,1.95849609375,-1.57928466796875,1.5716552734375,0.244140625,17.692796092796094,-13.044688644688645,69.57167277167277,-1.94189453125,-0.046875,0.2919921875,-3.0975341796875,-1.3885498046875,0.6561279296875,17.54285714285714,-57.87643467643468,28.638339438339436,1.611328125,1.21728515625,-0.45458984375,-0.81634521484375,0.9002685546875,1.88446044921875,-56.227106227106226,5.547741147741148,16.193406593406593
24:01.552,0.1962890625,-0.60107421875,1.93994140625,-2.64739990234375,5.07354736328125,-1.13677978515625,15.893528693528692,-11.245421245421245,68.67203907203907,-1.95068359375,-0.05419921875,0.20263671875,-3.37982177734375,2.62451171875,0.87738037109375,17.692796092796094,-58.77606837606837,30.437606837606836,1.611328125,1.22265625,-0.47802734375,-0.8392333984375,0.86212158203125,1.6632080078125,-55.92722832722833,4.648107448107448,16.043467643467643
24:02.380,0.10888671875,-0.6171875,1.9443359375,-2.166748046875,3.0670166015625,-0.17547607421875,16.343345543345542,-13.044688644688645,69.27179487179487,-1.9404296875,-0.048828125,0.22021484375,-3.15093994140625,-1.56402587890625,0.6561279296875,18.44249084249084,-57.27667887667887,29.088156288156288,1.60693359375,1.2138671875,-0.494140625,-1.312255859375,0.38909912109375,2.044677734375,-56.526984126984125,5.247863247863248,16.793162393162394
24:03.258,0.10888671875,-0.6171875,1.9443359375,-5.14984130859375,22.186279296875,-12.64190673828125,17.093040293040293,-9.895970695970696,69.27179487179487,-1.89111328125,-0.1669921875,0.51123046875,-5.76019287109375,-4.96673583984375,1.71661376953125,16.193406593406593,-58.326251526251525,28.788278388278385,1.59521484375,1.224609375,-0.46923828125,-2.35748291015625,-2.0904541015625,2.87628173828125,-56.227106227106226,6.597313797313797,17.242979242979242
24:04.135,0.50048828125,0.19091796875,2.0263671875,-5.14984130859375,22.186279296875,-12.64190673828125,6.447374847374848,-15.893528693528692,61.47496947496947,-1.90234375,-0.1025390625,0.48291015625,-4.43267822265625,-2.34222412109375,0.0762939453125,21.14139194139194,-57.87643467643468,40.93333333333333,1.60009765625,1.22412109375,-0.4716796875,-1.19781494140625,0.8697509765625,1.50299072265625,-55.62735042735043,7.197069597069596,16.64322344322344
24:04.964,0.3583984375,-0.14208984375,2.12060546875,-7.110595703125,16.38031005859375,5.5999755859375,6.447374847374848,-15.893528693528692,61.47496947496947,-1.90234375,-0.1025390625,0.48291015625,-4.1961669921875,-0.08392333984375,-1.0223388671875,16.193406593406593,-59.07594627594627,40.033699633699634,1.60791015625,1.21728515625,-0.47607421875,-0.06103515625,3.47137451171875,1.2664794921875,-56.526984126984125,6.597313797313797,17.242979242979242
24:05.842,0.482421875,-0.15087890625,2.12255859375,-9.11712646484375,4.730224609375,-6.01959228515625,10.045909645909646,-13.494505494505495,65.52332112332113,-1.89306640625,-0.189453125,0.533203125,-4.1961669921875,-0.08392333984375,-1.0223388671875,17.992673992673993,-57.27667887667887,42.43272283272283,1.60791015625,1.21728515625,-0.47607421875,-0.06103515625,3.47137451171875,1.2664794921875,-55.92722832722833,4.947985347985348,16.64322344322344
24:06.670,0.78857421875,0.03271484375,1.7197265625,13.60321044921875,-15.08331298828125,19.5159912109375,8.096703296703296,-15.743589743589743,62.37460317460317,-1.91015625,-0.072265625,0.62841796875,-5.4473876953125,0.091552734375,1.09100341796875,17.992673992673993,-57.27667887667887,42.43272283272283,1.60009765625,1.2275390625,-0.466796875,-1.9378662109375,-1.96075439453125,1.42669677734375,-55.92722832722833,4.947985347985348,16.64322344322344
24:07.500,-0.05517578125,-0.42724609375,1.927734375,3.814697265625,-43.6553955078125,-16.2506103515625,7.047130647130647,-17.093040293040293,62.97435897435897,-1.8642578125,-0.083984375,0.54345703125,-5.584716796875,-0.1220703125,-0.41961669921875,17.54285714285714,-58.626129426129424,43.33235653235653,1.61474609375,1.21728515625,-0.46435546875,-1.07574462890625,0.23651123046875,1.36566162109375,-54.577777777777776,4.947985347985348,17.39291819291819
24:08.328,0.1591796875,-0.59619140625,1.96337890625,1.3275146484375,-8.75091552734375,12.359619140625,8.396581196581197,-19.64200244200244,61.32503052503052,-1.87451171875,0.03662109375,0.5908203125,-7.28607177734375,5.4168701171875,3.9520263671875,18.59242979242979,-58.176312576312576,43.03247863247863,1.60400390625,1.22265625,-0.45263671875,-1.5106201171875,-0.0152587890625,1.59454345703125,-55.77728937728938,7.347008547008547,17.842735042735043
24:09.157,0.1591796875,-0.59619140625,1.96337890625,1.3275146484375,-8.75091552734375,12.359619140625,15.293772893772893,-11.245421245421245,68.22222222222221,-1.87841796875,0.01513671875,0.42724609375,-3.4332275390625,4.43267822265625,2.0294189453125,15.443711843711844,-58.326251526251525,42.73260073260073,1.61572265625,1.21728515625,-0.466796875,-0.9918212890625,0.83160400390625,1.6632080078125,-55.62735042735043,5.397802197802197,17.692796092796094
24:09.985,0.185546875,-0.619140625,1.94091796875,-2.44140625,2.6092529296875,3.4027099609375,15.293772893772893,-11.245421245421245,68.22222222222221,-1.93505859375,0.00634765625,0.37109375,-1.922607421875,-2.0294189453125,0.885009765625,15.893528693528692,-57.27667887667887,36.88498168498168,1.6083984375,1.21240234375,-0.46875,-0.7781982421875,0.91552734375,1.556396484375,-55.62735042735043,6.447374847374848,17.39291819291819
24:10.814,0.28662109375,-0.6015625,1.9599609375,-2.105712890625,-0.30517578125,-0.83160400390625,16.793162393162394,-10.345787545787545,69.12185592185592,-1.93505859375,0.00634765625,0.37109375,-1.922607421875,-2.0294189453125,0.885009765625,15.143833943833943,-59.825641025641026,32.536752136752135,1.6083984375,1.21240234375,-0.46875,-0.7781982421875,0.91552734375,1.556396484375,-55.47741147741147,5.847619047619047,16.49328449328449
24:11.643,0.29541015625,-0.599609375,1.93408203125,-1.18255615234375,3.2196044921875,-0.12969970703125,15.743589743589743,-12.145054945054945,68.37216117216117,-1.908203125,0.0009765625,0.3984375,-4.06646728515625,-0.2593994140625,0.9765625,15.143833943833943,-59.825641025641026,32.536752136752135,1.607421875,1.2255859375,-0.4638671875,-0.86212158203125,0.75531005859375,1.94549560546875,-55.47741147741147,5.847619047619047,16.49328449328449
24:12.472,0.27978515625,-0.599609375,1.943359375,-1.60980224609375,-0.69427490234375,0.67138671875,16.343345543345542,-11.695238095238095,67.92234432234432,-1.92431640625,0.00732421875,0.4267578125,-3.7994384765625,-3.02886962890625,0.7171630859375,15.743589743589743,-58.176312576312576,36.285225885225884,1.5732421875,1.23876953125,-0.46875,-1.30462646484375,0.579833984375,1.64031982421875,-56.826862026862024,6.297435897435897,17.54285714285714
24:13.349,0.30517578125,-0.603515625,1.93115234375,-1.15966796875,1.28936767578125,-0.05340576171875,16.793162393162394,-13.944322344322345,69.12185592185592,-1.923828125,0.02001953125,0.37939453125,-3.814697265625,2.00653076171875,1.3275146484375,16.64322344322344,-60.275457875457874,34.336019536019535,1.60546875,1.20751953125,-0.49560546875,-1.02996826171875,0.6256103515625,1.41143798828125,-56.377045177045176,5.397802197802197,17.39291819291819
24:14.178,0.30517578125,-0.603515625,1.93115234375,-1.28936767578125,0.91552734375,0.51116943359375,15.443711843711844,-13.194627594627594,68.37216117216117,-1.91455078125,0.00537109375,0.41748046875,-2.81524658203125,-0.18310546875,0.4425048828125,14.544078144078144,-57.42661782661782,34.93577533577533,1.6044921875,1.21240234375,-0.48779296875,-0.946044921875,0.6866455078125,1.8463134765625,-54.877655677655675,4.947985347985348,17.692796092796094
24:15.007,0.2880859375,-0.59130859375,1.91943359375,-1.28936767578125,0.91552734375,0.51116943359375,15.443711843711844,-13.194627594627594,68.37216117216117,-1.90966796875,-0.0048828125,0.43994140625,-3.25775146484375,-2.13623046875,0.93841552734375,16.043467643467643,-58.176312576312576,36.285225885225884,1.6044921875,1.21240234375,-0.49072265625,-1.02996826171875,0.90789794921875,1.38092041015625,-55.32747252747252,3.598534798534798,17.093040293040293
24:15.835,0.2861328125,-0.6123046875,1.93603515625,-1.495361328125,0.8392333984375,0.244140625,15.743589743589743,-13.194627594627594,67.77240537240537,-1.90966796875,-0.0048828125,0.43994140625,-3.25775146484375,-2.13623046875,0.93841552734375,15.143833943833943,-58.026373626373626,37.48473748473749,1.6044921875,1.21240234375,-0.49072265625,-1.02996826171875,0.90789794921875,1.38092041015625,-55.32747252747252,6.747252747252747,16.343345543345542
24:16.664,0.3583984375,-0.59912109375,1.93212890625,-1.434326171875,-0.40435791015625,0.69427490234375,17.242979242979242,-13.644444444444444,69.12185592185592,-1.9228515625,0.01171875,0.44091796875,-2.03704833984375,-0.26702880859375,1.0986328125,15.143833943833943,-58.026373626373626,37.48473748473749,1.60302734375,1.216796875,-0.48583984375,-0.823974609375,0.7171630859375,1.68609619140625,-55.32747252747252,6.747252747252747,16.343345543345542
24:17.493,0.32177734375,-0.61474609375,1.9248046875,-1.4495849609375,2.3040771484375,0.030517578125,16.193406593406593,-15.443711843711844,68.07228327228327,-1.86083984375,-0.0107421875,0.5224609375,-8.331298828125,-18.280029296875,3.875732421875,14.993894993894994,-57.87643467643468,37.03492063492063,1.595703125,1.21142578125,-0.478515625,-0.91552734375,0.7476806640625,1.7242431640625,-54.577777777777776,6.447374847374848,18.142612942612942
24:18.322,0.49072265625,-0.28125,1.99951171875,-2.99072265625,19.012451171875,0.4425048828125,15.443711843711844,-13.644444444444444,67.77240537240537,-1.859375,-0.09130859375,0.560546875,-2.40325927734375,2.02178955078125,1.52587890625,16.793162393162394,-59.67570207570208,40.48351648351648,1.6044921875,1.212890625,-0.49365234375,-1.41143798828125,0.244140625,1.53350830078125,-55.47741147741147,5.847619047619047,16.49328449328449
24:19.151,0.49072265625,-0.28125,1.99951171875,-2.99072265625,19.012451171875,0.4425048828125,13.194627594627594,-17.992673992673993,62.52454212454212,-1.853515625,-0.08544921875,0.5849609375,-2.46429443359375,-0.40435791015625,1.190185546875,16.943101343101343,-58.026373626373626,43.78217338217338,1.59912109375,1.2080078125,-0.48681640625,-1.03759765625,0.78582763671875,1.57928466796875,-55.92722832722833,6.747252747252747,16.64322344322344
24:20.077,0.59912109375,-0.46337890625,1.90185546875,-2.51007080078125,-9.49859619140625,-13.8397216796875,11.245421245421245,-13.644444444444444,66.72283272283272,-1.8251953125,-0.08740234375,0.61669921875,-1.56402587890625,4.00543212890625,3.875732421875,18.142612942612942,-59.22588522588522,44.08205128205128,1.60986328125,1.21435546875,-0.49609375,-0.93841552734375,1.0223388671875,1.56402587890625,-56.377045177045176,6.147496947496947,16.64322344322344
24:20.905,0.40625,-0.24365234375,2.2314453125,-4.44793701171875,3.95965576171875,-2.6397705078125,11.245421245421245,-13.644444444444444,66.72283272283272,-1.8251953125,-0.08740234375,0.61669921875,-3.73077392578125,-3.7384033203125,1.7242431640625,18.44249084249084,-57.57655677655677,44.23199023199023,1.60986328125,1.21435546875,-0.49609375,-0.6103515625,1.9073486328125,1.739501953125,-54.877655677655675,5.697680097680098,17.39291819291819
24:21.734,0.2998046875,-0.48388671875,1.91259765625,-19.53125,50.72784423828125,-34.11102294921875,9.746031746031745,-15.443711843711844,66.12307692307692,-1.87109375,-0.10888671875,0.5712890625,-3.73077392578125,-3.7384033203125,1.7242431640625,18.44249084249084,-57.57655677655677,44.23199023199023,1.595703125,1.2158203125,-0.48681640625,-0.6103515625,1.9073486328125,1.739501953125,-54.877655677655675,5.697680097680098,17.39291819291819
24:22.563,0.109375,-0.59765625,2.08447265625,-1.495361328125,-6.1187744140625,-9.17816162109375,13.644444444444444,-13.644444444444444,67.02271062271062,-1.86962890625,0.05322265625,0.6044921875,-1.0833740234375,8.6669921875,-0.54168701171875,17.992673992673993,-58.326251526251525,42.43272283272283,1.60205078125,1.20849609375,-0.4765625,-1.01470947265625,1.24359130859375,1.77764892578125,-56.377045177045176,5.697680097680098,14.993894993894994
24:23.392,0.251953125,-0.59619140625,1.94384765625,0.60272216796875,-0.244140625,0.3662109375,15.143833943833943,-12.145054945054945,70.47130647130646,-1.91357421875,0.05810546875,0.29052734375,-2.05230712890625,2.5177001953125,1.18255615234375,15.893528693528692,-58.326251526251525,41.08327228327228,1.6044921875,1.20751953125,-0.48095703125,-0.8087158203125,0.81634521484375,1.27410888671875,-56.377045177045176,5.697680097680098,14.993894993894994
24:24.269,0.31591796875,-0.580078125,1.9501953125,-1.5716552734375,2.99835205078125,0.2593994140625,13.644444444444444,-12.594871794871795,68.82197802197803,-1.92724609375,0.03515625,0.341796875,-3.570556640625,-1.861572265625,0.8087158203125,15.893528693528692,-58.77606837606837,31.187301587301587,1.60546875,1.21240234375,-0.47607421875,-0.78582763671875,1.129150390625,1.46484375,-55.027594627594624,7.347008547008547,17.54285714285714
24:25.098,0.31591796875,-0.580078125,1.9501953125,-1.5716552734375,2.99835205078125,0.2593994140625,16.193406593406593,-13.644444444444444,70.17142857142856,-1.93505859375,0.03759765625,0.35302734375,-2.5482177734375,-2.60162353515625,0.98419189453125,13.644444444444444,-58.77606837606837,31.936996336996337,1.60791015625,1.2109375,-0.49072265625,-1.1444091796875,0.61798095703125,1.2054443359375,-54.427838827838826,6.297435897435897,16.793162393162394
24:25.927,0.2939453125,-0.59912109375,1.9208984375,-1.50299072265625,-2.01416015625,0.274658203125,16.193406593406593,-13.644444444444444,70.17142857142856,-1.93505859375,0.03759765625,0.35302734375,-3.28826904296875,11.95526123046875,-0.396728515625,15.893528693528692,-59.52576312576312,32.536752136752135,1.60791015625,1.2109375,-0.49072265625,-1.19781494140625,1.04522705078125,1.52587890625,-55.32747252747252,4.947985347985348,17.093040293040293
24:26.756,0.41552734375,-0.591796875,1.87841796875,-8.55255126953125,-29.64019775390625,-10.81085205078125,15.143833943833943,-12.594871794871795,69.12185592185592,-1.8271484375,0.01171875,0.625,-3.28826904296875,11.95526123046875,-0.396728515625,15.893528693528692,-59.52576312576312,32.536752136752135,1.60888671875,1.21044921875,-0.49072265625,-1.19781494140625,1.04522705078125,1.52587890625,-55.32747252747252,4.947985347985348,17.093040293040293
24:27.584,0.34228515625,-0.5888671875,1.89990234375,-0.40435791015625,1.91497802734375,-0.20599365234375,14.843956043956043,-11.695238095238095,70.02148962148962,-1.912109375,0.01904296875,0.4462890625,-3.18145751953125,-1.8310546875,1.10626220703125,14.694017094017093,-58.326251526251525,46.33113553113553,1.607421875,1.2216796875,-0.482421875,-1.068115234375,1.068115234375,1.68609619140625,-56.526984126984125,6.297435897435897,16.49328449328449
24:28.511,0.26611328125,-0.5869140625,1.94287109375,-1.0833740234375,1.0833740234375,0.3814697265625,14.843956043956043,-12.294993894993894,70.02148962148962,-1.8876953125,0.00927734375,0.55029296875,-3.34930419921875,-2.14385986328125,1.06048583984375,14.993894993894994,-59.22588522588522,35.23565323565323,1.60791015625,1.21484375,-0.4794921875,-1.0223388671875,0.98419189453125,1.7242431640625,-55.027594627594624,7.047130647130647,16.193406593406593
24:29.339,0.0791015625,-0.59814453125,1.9619140625,2.98309326171875,9.6588134765625,1.3580322265625,15.893528693528692,-12.294993894993894,70.02148962148962,-1.890625,0.0146484375,0.556640625,-0.640869140625,1.33514404296875,1.9989013671875,14.694017094017093,-58.77606837606837,38.98412698412698,1.61083984375,1.2099609375,-0.47509765625,-0.93841552734375,0.93841552734375,1.28936767578125,-56.377045177045176,5.397802197802197,17.093040293040293
24:30.168,0.0791015625,-0.59814453125,1.9619140625,-0.640869140625,-6.89697265625,1.2969970703125,16.64322344322344,-9.146275946275946,70.32136752136752,-1.91552734375,0.02685546875,0.42724609375,-2.18963623046875,5.3558349609375,1.3885498046875,14.544078144078144,-57.87643467643468,40.48351648351648,1.61376953125,1.2158203125,-0.48681640625,-1.07574462890625,0.90789794921875,1.6021728515625,-56.377045177045176,4.947985347985348,17.093040293040293
24:30.997,0.0146484375,-0.595703125,2.00390625,-0.640869140625,-6.89697265625,1.2969970703125,16.64322344322344,-9.146275946275946,70.32136752136752,-1.95361328125,0.0185546875,0.40673828125,-3.0975341796875,-6.011962890625,-0.2899169921875,15.743589743589743,-58.626129426129424,36.285225885225884,1.60791015625,1.20751953125,-0.47607421875,-1.10626220703125,1.068115234375,1.85394287109375,-55.77728937728938,5.247863247863248,16.49328449328449
24:31.874,0.21923828125,-0.5927734375,1.94287109375,-1.15203857421875,1.74713134765625,-1.0986328125,15.143833943833943,-9.746031746031745,70.77118437118438,-1.95361328125,0.0185546875,0.40673828125,-4.55474853515625,-0.2288818359375,0.11444091796875,15.443711843711844,-58.326251526251525,34.036141636141636,1.60791015625,1.20751953125,-0.47607421875,-1.18255615234375,0.823974609375,1.74713134765625,-55.32747252747252,5.697680097680098,17.39291819291819
24:32.703,0.20947265625,-0.59228515625,1.9375,-1.12152099609375,1.65557861328125,-0.213623046875,15.293772893772893,-10.195848595848595,70.02148962148962,-1.916015625,-0.00439453125,0.482421875,-4.55474853515625,-0.2288818359375,0.11444091796875,15.443711843711844,-58.326251526251525,34.036141636141636,1.60009765625,1.21142578125,-0.49560546875,-1.18255615234375,0.823974609375,1.74713134765625,-55.32747252747252,5.697680097680098,17.39291819291819
24:33.532,0.2021484375,-0.59765625,1.9384765625,-0.63323974609375,4.47845458984375,0.6561279296875,15.743589743589743,-11.845177045177044,71.22100122100122,-1.8759765625,0.009765625,0.50439453125,-4.2724609375,0.3662109375,0.457763671875,16.64322344322344,-57.57655677655677,37.18485958485958,1.6044921875,1.2158203125,-0.47802734375,-0.89263916015625,1.38092041015625,1.8157958984375,-56.676923076923075,5.397802197802197,18.142612942612942
24:34.409,0.14697265625,-0.59814453125,1.93359375,-1.04522705078125,1.2054443359375,0.23651123046875,15.143833943833943,-8.996336996336996,70.77118437118438,-1.91748046875,0.0234375,0.3876953125,-4.5013427734375,-1.67083740234375,0.6561279296875,15.143833943833943,-59.07594627594627,41.08327228327228,1.6064453125,1.20947265625,-0.46826171875,-1.04522705078125,1.1444091796875,1.71661376953125,-56.227106227106226,6.297435897435897,16.49328449328449
24:35.238,0.14697265625,-0.59814453125,1.93359375,-1.190185546875,0.75531005859375,0.5340576171875,16.49328449328449,-8.246642246642246,71.52087912087912,-1.91162109375,-0.0126953125,0.50048828125,-2.288818359375,-2.9449462890625,1.44195556640625,15.893528693528692,-56.526984126984125,35.835409035409036,1.60791015625,1.203125,-0.48583984375,-1.1444091796875,0.9307861328125,1.5106201171875,-55.77728937728938,5.247863247863248,17.842735042735043
24:36.067,0.1484375,-0.5947265625,1.95263671875,-1.190185546875,0.75531005859375,0.5340576171875,14.843956043956043,-9.446153846153846,67.92234432234432,-1.88916015625,0.02001953125,0.517578125,-4.61578369140625,-0.79345703125,1.01470947265625,15.893528693528692,-57.27667887667887,38.98412698412698,1.599609375,1.2099609375,-0.4814453125,-0.9613037109375,1.06048583984375,1.4495849609375,-55.62735042735043,6.747252747252747,16.64322344322344
24:36.896,-0.03662109375,-0.60498046875,1.9638671875,2.92205810546875,27.59552001953125,4.26483154296875,14.843956043956043,-9.446153846153846,67.92234432234432,-1.88916015625,0.02001953125,0.517578125,-0.84686279296875,3.173828125,1.65557861328125,16.043467643467643,-56.676923076923075,40.48351648351648,1.599609375,1.2099609375,-0.4814453125,-0.885009765625,1.1749267578125,1.71661376953125,-55.32747252747252,6.447374847374848,16.64322344322344
24:37.724,0.20751953125,-0.59521484375,1.9453125,-1.77001953125,-0.70953369140625,0.92315673828125,14.544078144078144,-8.396581196581197,71.37094017094017,-1.89111328125,0.0263671875,0.4482421875,-0.84686279296875,3.173828125,1.65557861328125,16.043467643467643,-56.676923076923075,40.48351648351648,1.607421875,1.20947265625,-0.47998046875,-0.885009765625,1.1749267578125,1.71661376953125,-55.32747252747252,6.447374847374848,16.64322344322344
24:38.553,0.19189453125,-0.6044921875,1.94384765625,-1.373291015625,4.66156005859375,0.335693359375,17.54285714285714,-10.795604395604395,71.22100122100122,-1.8994140625,0.02001953125,0.412109375,-2.3345947265625,-0.95367431640625,0.4425048828125,14.244200244200243,-59.975579975579976,34.93577533577533,1.60400390625,1.2109375,-0.4765625,-0.87738037109375,0.58746337890625,1.6326904296875,-56.227106227106226,7.347008547008547,16.49328449328449
24:39.382,0.22998046875,-0.61328125,1.9326171875,-1.434326171875,1.77001953125,-0.06103515625,15.893528693528692,-10.195848595848595,70.62124542124542,-1.91162109375,0.02783203125,0.517578125,-2.63214111328125,-0.823974609375,1.4190673828125,15.743589743589743,-59.22588522588522,34.93577533577533,1.5986328125,1.21923828125,-0.48193359375,-0.99945068359375,0.457763671875,1.50299072265625,-55.027594627594624,5.547741147741148,16.793162393162394
24:40.211,0.22998046875,-0.61328125,1.9326171875,-1.39617919921875,0.31280517578125,0.02288818359375,15.893528693528692,-10.195848595848595,70.32136752136752,-1.90625,0.01123046875,0.5068359375,-3.45611572265625,3.509521484375,1.220703125,15.443711843711844,-59.07594627594627,38.234432234432234,1.59912109375,1.21435546875,-0.474609375,-1.3427734375,0.43487548828125,1.68609619140625,-55.32747252747252,6.147496947496947,17.692796092796094
24:41.039,0.23779296875,-0.60791015625,1.931640625,-1.39617919921875,0.31280517578125,0.02288818359375,15.893528693528692,-10.195848595848595,70.32136752136752,-1.9130859375,0.03076171875,0.41748046875,-3.4942626953125,0.640869140625,0.98419189453125,14.094261294261294,-58.77606837606837,39.583882783882785,1.60888671875,1.2109375,-0.4853515625,-1.06048583984375,0.61798095703125,1.50299072265625,-55.47741147741147,6.297435897435897,17.242979242979242
24:41.868,0.2509765625,-0.6083984375,1.92138671875,-0.9765625,0.98419189453125,0.244140625,14.544078144078144,-11.245421245421245,71.07106227106227,-1.9130859375,0.03076171875,0.41748046875,-3.4942626953125,0.640869140625,0.98419189453125,15.143833943833943,-59.07594627594627,35.835409035409036,1.60888671875,1.2109375,-0.4853515625,-1.06048583984375,0.61798095703125,1.50299072265625,-57.42661782661782,5.697680097680098,15.593650793650793
24:42.746,0.234375,-0.6005859375,1.93017578125,-1.5411376953125,0.6103515625,0.02288818359375,15.743589743589743,-11.395360195360196,69.12185592185592,-1.89794921875,0.02197265625,0.4326171875,-4.6539306640625,-2.11334228515625,0.8544921875,15.143833943833943,-59.07594627594627,35.835409035409036,1.60498046875,1.21044921875,-0.48046875,-0.9307861328125,1.129150390625,1.556396484375,-57.42661782661782,5.697680097680098,15.593650793650793
24:43.575,0.228515625,-0.60693359375,1.93359375,-1.27410888671875,1.8768310546875,0.0457763671875,16.793162393162394,-12.594871794871795,69.12185592185592,-1.90625,0.02734375,0.45751953125,-5.096435546875,-0.5950927734375,1.64031982421875,14.244200244200243,-58.626129426129424,36.285225885225884,1.60400390625,1.203125,-0.4833984375,-1.09100341796875,0.58746337890625,1.6021728515625,-55.027594627594624,6.297435897435897,16.49328449328449
24:44.403,0.2373046875,-0.59716796875,1.93505859375,-1.495361328125,0.6256103515625,0.34332275390625,17.093040293040293,-11.995115995115995,68.97191697191697,-1.892578125,0.01806640625,0.4013671875,-2.35748291015625,1.67083740234375,0.946044921875,16.193406593406593,-58.326251526251525,40.63345543345543,1.6005859375,1.21142578125,-0.48486328125,-1.0986328125,0.57220458984375,1.48773193359375,-55.62735042735043,4.947985347985348,17.39291819291819
24:45.232,0.2373046875,-0.59716796875,1.93505859375,-1.30462646484375,1.76239013671875,0.0457763671875,14.094261294261294,-12.594871794871795,69.42173382173382,-1.89453125,0.00244140625,0.462890625,-3.65447998046875,-4.05120849609375,0.79345703125,16.343345543345542,-57.12673992673992,36.58510378510378,1.60498046875,1.2109375,-0.49267578125,-1.35040283203125,0.77056884765625,1.64794921875,-56.826862026862024,5.847619047619047,18.29255189255189
24:46.081,0.22412109375,-0.61669921875,1.93212890625,-1.30462646484375,1.76239013671875,0.0457763671875,14.094261294261294,-12.594871794871795,69.42173382173382,-1.89013671875,0.02197265625,0.49462890625,-3.173828125,-2.7923583984375,1.2969970703125,14.394139194139193,-59.52576312576312,37.18485958485958,1.60107421875,1.21044921875,-0.48779296875,-0.93841552734375,0.90789794921875,1.678466796875,-54.727716727716725,5.847619047619047,16.793162393162394
24:46.938,0.2431640625,-0.609375,1.92431640625,-1.36566162109375,1.007080078125,-0.1373291015625,15.293772893772893,-11.695238095238095,70.32136752136752,-1.89013671875,0.02197265625,0.49462890625,-2.03704833984375,1.62506103515625,1.708984375,14.694017094017093,-59.52576312576312,38.98412698412698,1.60107421875,1.21044921875,-0.48779296875,-1.0223388671875,1.03759765625,1.73187255859375,-56.377045177045176,3.598534798534798,17.692796092796094
24:47.767,0.224609375,-0.60302734375,1.94970703125,-1.59454345703125,0.77056884765625,0.1068115234375,17.093040293040293,-11.245421245421245,69.27179487179487,-1.89892578125,0.02587890625,0.46875,-2.03704833984375,1.62506103515625,1.708984375,14.694017094017093,-59.52576312576312,38.98412698412698,1.6064453125,1.212890625,-0.4912109375,-1.0223388671875,1.03759765625,1.73187255859375,-56.826862026862024,6.297435897435897,16.193406593406593
24:48.693,0.21337890625,-0.60791015625,1.93359375,-1.434326171875,2.47955322265625,-0.17547607421875,15.593650793650793,-9.895970695970696,69.27179487179487,-1.880859375,0.00537109375,0.55810546875,-1.01470947265625,-2.2735595703125,1.07574462890625,15.293772893772893,-58.626129426129424,36.285225885225884,1.60400390625,1.2099609375,-0.494140625,-0.89263916015625,1.19781494140625,1.739501953125,-56.826862026862024,6.297435897435897,16.193406593406593
24:49.571,0.21923828125,-0.61083984375,1.92724609375,-1.3275146484375,1.800537109375,-0.1678466796875,15.593650793650793,-11.695238095238095,71.37094017094017,-1.87548828125,0.0166015625,0.5322265625,-3.57818603515625,0.86212158203125,0.79345703125,13.494505494505495,-58.626129426129424,39.433943833943836,1.59521484375,1.2119140625,-0.4677734375,-1.1138916015625,0.43487548828125,1.9378662109375,-56.526984126984125,7.047130647130647,17.242979242979242
24:50.399,0.21826171875,-0.6103515625,1.9208984375,-1.3580322265625,2.50244140625,-0.457763671875,16.49328449328449,-11.845177045177044,69.87155067155066,-1.88134765625,0.021484375,0.56298828125,-0.6866455078125,3.27301025390625,0.42724609375,15.743589743589743,-57.42661782661782,40.93333333333333,1.60546875,1.21875,-0.4814453125,-1.30462646484375,0.49591064453125,1.46484375,-56.377045177045176,6.447374847374848,17.692796092796094
24:51.228,0.21826171875,-0.6103515625,1.9208984375,-1.27410888671875,0.70953369140625,0.03814697265625,16.343345543345542,-10.645665445665445,70.02148962148962,-1.91796875,0.04248046875,0.40380859375,-3.51715087890625,0.2593994140625,1.52587890625,15.743589743589743,-59.22588522588522,40.18363858363858,1.6103515625,1.2109375,-0.470703125,-0.91552734375,0.95367431640625,1.73187255859375,-55.32747252747252,5.697680097680098,16.64322344322344
24:52.106,0.23046875,-0.60302734375,1.92333984375,-1.27410888671875,0.70953369140625,0.03814697265625,13.644444444444444,-11.395360195360196,70.47130647130646,-1.8857421875,0.0087890625,0.548828125,-3.448486328125,-3.23486328125,1.556396484375,15.143833943833943,-58.77606837606837,36.135286935286935,1.6064453125,1.2099609375,-0.48779296875,-0.55694580078125,0.9307861328125,1.65557861328125,-54.427838827838826,5.547741147741148,16.793162393162394
24:52.983,0.03759765625,-0.61376953125,1.9267578125,-4.24957275390625,10.36834716796875,14.556884765625,13.644444444444444,-11.395360195360196,70.47130647130646,-1.86962890625,0.02001953125,0.56787109375,-2.78472900390625,-1.068115234375,1.16729736328125,14.544078144078144,-57.12673992673992,40.93333333333333,1.603515625,1.20751953125,-0.48828125,-0.98419189453125,0.64849853515625,1.5106201171875,-55.92722832722833,6.447374847374848,17.093040293040293
24:53.861,0.1923828125,-0.60400390625,1.91943359375,-1.02996826171875,-0.63323974609375,0.3204345703125,16.64322344322344,-10.945543345543346,70.02148962148962,-1.86962890625,0.02001953125,0.56787109375,-2.78472900390625,-1.068115234375,1.16729736328125,16.343345543345542,-57.87643467643468,41.533089133089135,1.603515625,1.20751953125,-0.48828125,-0.98419189453125,0.64849853515625,1.5106201171875,-54.877655677655675,4.648107448107448,16.043467643467643
24:54.689,0.15966796875,-0.60302734375,1.94921875,-1.46484375,0.457763671875,0.42724609375,16.793162393162394,-10.045909645909646,69.87155067155066,-1.90234375,0.01513671875,0.42919921875,-3.54766845703125,4.43267822265625,1.1138916015625,16.343345543345542,-57.87643467643468,41.533089133089135,1.6064453125,1.20849609375,-0.47998046875,-1.19781494140625,0.78582763671875,1.73187255859375,-54.877655677655675,4.648107448107448,16.043467643467643
24:55.519,0.1162109375,-0.61474609375,1.94873046875,-1.312255859375,0.8087158203125,0.0457763671875,16.343345543345542,-9.446153846153846,70.62124542124542,-1.88427734375,0.013671875,0.4912109375,-2.95257568359375,-1.77001953125,0.81634521484375,15.893528693528692,-56.97680097680097,37.48473748473749,1.61279296875,1.20703125,-0.47607421875,-0.9307861328125,0.8697509765625,1.739501953125,-55.92722832722833,5.397802197802197,16.64322344322344
24:56.396,0.158203125,-0.59619140625,1.9619140625,-1.15966796875,-2.25067138671875,-1.0223388671875,16.343345543345542,-9.446153846153846,70.32136752136752,-1.87158203125,0.01513671875,0.51708984375,-4.4708251953125,-1.27410888671875,0.8392333984375,17.242979242979242,-58.326251526251525,38.98412698412698,1.60205078125,1.21630859375,-0.48388671875,-0.90789794921875,0.95367431640625,1.40380859375,-56.227106227106226,7.047130647130647,16.793162393162394
24:57.224,0.158203125,-0.59619140625,1.9619140625,0.61798095703125,10.1470947265625,-0.52642822265625,16.193406593406593,-10.045909645909646,71.22100122100122,-1.88330078125,0.01953125,0.55029296875,-1.9378662109375,-1.41143798828125,1.09100341796875,16.64322344322344,-58.326251526251525,40.33357753357753,1.60107421875,1.2197265625,-0.486328125,-1.190185546875,0.61798095703125,1.64794921875,-56.227106227106226,6.597313797313797,16.793162393162394
24:58.053,0.1611328125,-0.60986328125,1.94384765625,0.61798095703125,10.1470947265625,-0.52642822265625,16.193406593406593,-10.045909645909646,71.22100122100122,-1.8671875,0.0205078125,0.4951171875,-5.88226318359375,0.52642822265625,0.63323974609375,15.143833943833943,-58.026373626373626,41.08327228327228,1.59716796875,1.21484375,-0.490234375,-0.9765625,0.6103515625,1.7242431640625,-56.526984126984125,7.047130647130647,16.49328449328449
24:58.882,0.20068359375,-0.60009765625,1.91748046875,-2.63214111328125,6.8206787109375,-1.64794921875,15.743589743589743,-11.095482295482295,70.47130647130646,-1.8671875,0.0205078125,0.4951171875,-3.2501220703125,-1.1444091796875,1.007080078125,17.54285714285714,-58.92600732600732,40.18363858363858,1.59716796875,1.21484375,-0.490234375,-0.732421875,0.99945068359375,1.80816650390625,-56.227106227106226,5.547741147741148,17.54285714285714
24:59.711,0.1474609375,-0.59716796875,1.9365234375,-0.87738037109375,-0.2593994140625,0.2899169921875,14.694017094017093,-9.746031746031745,72.12063492063491,-1.87841796875,0.021484375,0.54443359375,-3.2501220703125,-1.1444091796875,1.007080078125,17.54285714285714,-58.92600732600732,40.18363858363858,1.60205078125,1.21533203125,-0.48828125,-0.732421875,0.99945068359375,1.80816650390625,-56.227106227106226,5.547741147741148,17.54285714285714
25:00.539,0.1240234375,-0.60791015625,1.95654296875,-0.67138671875,-2.5482177734375,1.88446044921875,16.193406593406593,-9.746031746031745,69.87155067155066,-1.87255859375,0.0185546875,0.56298828125,-3.42559814453125,-0.78582763671875,0.9918212890625,15.443711843711844,-59.52576312576312,40.033699633699634,1.60888671875,1.2138671875,-0.48291015625,-1.03759765625,1.007080078125,1.48773193359375,-55.027594627594624,6.297435897435897,16.49328449328449
25:01.368,0.19970703125,-0.5791015625,1.9365234375,-3.1890869140625,-0.9307861328125,2.13623046875,16.343345543345542,-10.645665445665445,70.02148962148962,-1.90380859375,0.01318359375,0.4853515625,-2.8839111328125,3.04412841796875,1.21307373046875,15.893528693528692,-58.026373626373626,42.13284493284493,1.6044921875,1.20458984375,-0.47802734375,-1.2664794921875,0.701904296875,1.77764892578125,-55.32747252747252,5.697680097680098,16.64322344322344
25:02.197,0.19970703125,-0.5791015625,1.9365234375,1.15966796875,-6.18743896484375,0.98419189453125,15.593650793650793,-9.895970695970696,70.02148962148962,-1.90087890625,0.0166015625,0.5224609375,-2.52532958984375,-1.09100341796875,1.45721435546875,15.893528693528692,-61.32503052503052,38.98412698412698,1.60546875,1.216796875,-0.48681640625,-1.190185546875,1.007080078125,1.4190673828125,-55.027594627594624,6.297435897435897,17.242979242979242
25:03.026,0.14111328125,-0.5908203125,1.94482421875,1.15966796875,-6.18743896484375,0.98419189453125,15.593650793650793,-9.895970695970696,70.02148962148962,-1.875,0.02587890625,0.52490234375,-2.79998779296875,-0.95367431640625,1.5869140625,14.993894993894994,-60.72527472527472,39.883760683760684,1.6064453125,1.2197265625,-0.4775390625,-0.9307861328125,1.03759765625,1.5869140625,-55.32747252747252,4.648107448107448,16.043467643467643
25:03.854,0.20361328125,-0.57275390625,1.95458984375,-0.64849853515625,-9.42230224609375,3.22723388671875,14.843956043956043,-10.945543345543346,70.02148962148962,-1.875,0.02587890625,0.52490234375,-2.79998779296875,-0.95367431640625,1.5869140625,16.64322344322344,-58.77606837606837,41.38315018315018,1.6064453125,1.2197265625,-0.4775390625,-0.9307861328125,1.03759765625,1.5869140625,-55.47741147741147,6.297435897435897,16.793162393162394
25:04.683,0.2548828125,-0.59375,1.9345703125,0.1068115234375,2.14385986328125,0.00762939453125,14.544078144078144,-9.446153846153846,71.37094017094017,-1.890625,0.013671875,0.5029296875,-2.11334228515625,2.96783447265625,0.823974609375,16.64322344322344,-58.77606837606837,41.38315018315018,1.60205078125,1.205078125,-0.4951171875,-1.007080078125,1.07574462890625,1.7242431640625,-55.47741147741147,6.297435897435897,16.793162393162394
25:05.512,0.13525390625,-0.60791015625,1.94873046875,-2.7313232421875,-1.83868408203125,0.4425048828125,15.443711843711844,-11.095482295482295,70.17142857142856,-1.904296875,0.02001953125,0.50390625,-3.6773681640625,-4.03594970703125,0.96893310546875,16.043467643467643,-58.92600732600732,40.18363858363858,1.60693359375,1.21484375,-0.47802734375,-1.18255615234375,1.190185546875,1.38092041015625,-56.377045177045176,5.697680097680098,17.093040293040293
25:06.389,0.15380859375,-0.607421875,1.9521484375,-2.55584716796875,2.18963623046875,-0.22125244140625,15.893528693528692,-8.846398046398047,71.37094017094017,-1.86181640625,0.0302734375,0.52587890625,-3.83758544921875,0.00762939453125,0.8697509765625,15.743589743589743,-58.626129426129424,39.883760683760684,1.607421875,1.216796875,-0.47119140625,-0.885009765625,0.732421875,1.8157958984375,-55.77728937728938,4.798046398046398,17.242979242979242
25:07.218,0.15380859375,-0.607421875,1.9521484375,-1.21307373046875,0.28228759765625,0.152587890625,17.093040293040293,-10.945543345543346,71.67081807081807,-1.87548828125,0.01416015625,0.52197265625,-2.38800048828125,0.98419189453125,0.86212158203125,14.694017094017093,-57.27667887667887,41.08327228327228,1.6201171875,1.2109375,-0.474609375,-1.1138916015625,0.69427490234375,1.6632080078125,-54.12796092796093,4.947985347985348,17.692796092796094
25:08.047,0.177734375,-0.59326171875,1.9453125,-1.21307373046875,0.28228759765625,0.152587890625,17.093040293040293,-10.945543345543346,71.67081807081807,-1.87646484375,0.03369140625,0.5,-2.37274169921875,0.42724609375,0.43487548828125,16.193406593406593,-58.77606837606837,40.33357753357753,1.609375,1.20751953125,-0.46875,-1.03759765625,0.6561279296875,1.495361328125,-55.77728937728938,5.247863247863248,17.842735042735043
25:08.876,0.20947265625,-0.59228515625,1.93310546875,-1.5716552734375,-0.32806396484375,-1.02996826171875,14.394139194139193,-9.746031746031745,70.17142857142856,-1.87646484375,0.03369140625,0.5,-3.05938720703125,0.8544921875,0.75531005859375,16.193406593406593,-59.52576312576312,41.08327228327228,1.609375,1.20751953125,-0.46875,-1.10626220703125,0.64849853515625,1.5716552734375,-57.57655677655677,5.247863247863248,19.34212454212454
25:09.705,0.19287109375,-0.5986328125,1.9345703125,-1.33514404296875,0.63323974609375,-0.12969970703125,16.343345543345542,-10.645665445665445,69.27179487179487,-1.8671875,0.0166015625,0.548828125,-3.05938720703125,0.8544921875,0.75531005859375,16.193406593406593,-59.52576312576312,41.08327228327228,1.6083984375,1.20751953125,-0.4892578125,-1.10626220703125,0.64849853515625,1.5716552734375,-57.57655677655677,5.247863247863248,19.34212454212454
25:10.533,0.1953125,-0.59912109375,1.9326171875,-1.25885009765625,1.0528564453125,0.28228759765625,15.743589743589743,-9.296214896214895,70.17142857142856,-1.88232421875,0.01953125,0.5517578125,-0.23651123046875,1.9989013671875,0.93841552734375,15.143833943833943,-58.026373626373626,41.683028083028084,1.6103515625,1.21484375,-0.48486328125,-1.007080078125,1.0986328125,1.251220703125,-56.676923076923075,6.747252747252747,17.093040293040293
25:11.362,0.19775390625,-0.595703125,1.94921875,-1.4495849609375,1.40380859375,0.1220703125,15.893528693528692,-9.895970695970696,70.32136752136752,-1.892578125,0.02490234375,0.52978515625,-2.67791748046875,-1.59454345703125,0.91552734375,15.293772893772893,-58.176312576312576,40.93333333333333,1.61181640625,1.208984375,-0.486328125,-0.86212158203125,1.0223388671875,1.64031982421875,-56.227106227106226,5.547741147741148,17.242979242979242
25:12.240,0.19775390625,-0.595703125,1.94921875,-2.26593017578125,-14.0380859375,-1.2054443359375,16.49328449328449,-12.594871794871795,71.22100122100122,-1.787109375,-0.00390625,0.54345703125,-2.960205078125,2.46429443359375,-1.88446044921875,15.893528693528692,-59.825641025641026,40.63345543345543,1.6103515625,1.2119140625,-0.49072265625,-0.69427490234375,1.0528564453125,1.3275146484375,-57.27667887667887,5.547741147741148,16.49328449328449
25:13.166,0.14599609375,-0.5966796875,1.94091796875,-0.69427490234375,-6.3018798828125,-0.57220458984375,15.143833943833943,-10.795604395604395,71.52087912087912,-1.8798828125,-0.02685546875,0.556640625,1.28936767578125,3.2196044921875,-0.5645751953125,14.694017094017093,-58.026373626373626,42.43272283272283,1.607421875,1.20849609375,-0.48193359375,-0.91552734375,0.77056884765625,1.40380859375,-55.32747252747252,6.447374847374848,16.64322344322344
25:13.994,0.18359375,-0.6044921875,1.98388671875,-0.69427490234375,-6.3018798828125,-0.57220458984375,15.143833943833943,-10.795604395604395,71.52087912087912,-1.865234375,-0.10693359375,0.5029296875,-3.60870361328125,-1.13677978515625,0.84686279296875,16.64322344322344,-59.52576312576312,41.08327228327228,1.60205078125,1.21142578125,-0.494140625,-0.701904296875,1.44195556640625,1.708984375,-56.526984126984125,5.847619047619047,16.793162393162394
25:14.872,0.31494140625,-0.55126953125,1.90625,-4.18853759765625,-11.68060302734375,-38.56658935546875,17.54285714285714,-12.594871794871795,70.47130647130646,-1.865234375,-0.10693359375,0.5029296875,-2.17437744140625,3.41796875,5.86700439453125,17.842735042735043,-57.12673992673992,41.533089133089135,1.60205078125,1.21142578125,-0.494140625,-1.28173828125,1.007080078125,1.7852783203125,-56.227106227106226,4.498168498168498,17.54285714285714
25:15.750,0.18359375,-0.57763671875,1.95166015625,10.3759765625,38.16986083984375,6.59942626953125,14.843956043956043,-13.494505494505495,68.67203907203907,-1.86279296875,-0.09033203125,0.53759765625,-2.17437744140625,3.41796875,5.86700439453125,17.842735042735043,-57.12673992673992,41.533089133089135,1.5986328125,1.2060546875,-0.49169921875,-1.28173828125,1.007080078125,1.7852783203125,-56.227106227106226,4.498168498168498,17.54285714285714
25:16.578,0.34326171875,-0.56640625,2.04248046875,2.716064453125,-10.3302001953125,3.6468505859375,15.143833943833943,-16.043467643467643,65.67326007326007,-1.8828125,-0.04833984375,0.529296875,-2.06756591796875,4.35638427734375,0.213623046875,19.64200244200244,-60.72527472527472,43.63223443223443,1.603515625,1.21728515625,-0.48583984375,-0.31280517578125,1.52587890625,1.6021728515625,-56.676923076923075,4.947985347985348,17.692796092796094
25:17.407,0.64013671875,0.357421875,2.0078125,15.41900634765625,7.6141357421875,25.79498291015625,14.843956043956043,-14.094261294261294,66.57289377289376,-1.9013671875,-0.09423828125,0.53857421875,-4.6539306640625,-3.9825439453125,1.7242431640625,18.742368742368743,-58.026373626373626,40.63345543345543,1.6044921875,1.2138671875,-0.4873046875,-1.40380859375,-0.213623046875,1.70135498046875,-56.676923076923075,4.947985347985348,17.093040293040293
25:18.236,0.64013671875,0.357421875,2.0078125,33.4625244140625,-54.57305908203125,33.30230712890625,2.548962148962149,-19.791941391941393,60.125518925518925,-1.8466796875,-0.1123046875,0.634765625,-6.75201416015625,-8.026123046875,-0.6561279296875,20.24175824175824,-59.825641025641026,43.78217338217338,1.6025390625,1.205078125,-0.490234375,-1.800537109375,-1.19781494140625,1.64794921875,-56.377045177045176,7.197069597069596,17.093040293040293
25:19.259,0.36474609375,-0.50390625,1.98046875,-6.7291259765625,-6.87408447265625,-2.7008056640625,5.097924297924298,-19.19218559218559,63.12429792429792,-1.8818359375,-0.0029296875,0.501953125,-2.02178955078125,2.38037109375,1.56402587890625,17.54285714285714,-59.22588522588522,45.73137973137973,1.59814453125,1.21044921875,-0.4833984375,-0.98419189453125,0.823974609375,1.89971923828125,-56.377045177045176,6.747252747252747,16.64322344322344
25:20.234,0.36474609375,-0.50390625,1.98046875,37.84942626953125,-50.68206787109375,9.521484375,13.344566544566543,-13.944322344322345,66.42295482295482,-1.8515625,-0.09521484375,0.5703125,-9.74273681640625,0.66375732421875,-1.02996826171875,15.893528693528692,-59.52576312576312,40.033699633699634,1.6044921875,1.22021484375,-0.48583984375,-0.80108642578125,0.51116943359375,1.19781494140625,-56.377045177045176,5.697680097680098,18.44249084249084
25:21.063,0.77099609375,-0.2265625,1.84033203125,37.84942626953125,-50.68206787109375,9.521484375,11.245421245421245,-18.892307692307693,64.32380952380952,-1.86328125,-0.109375,0.568359375,-1.86920166015625,0.9613037109375,-0.03814697265625,18.59242979242979,-57.87643467643468,43.63223443223443,1.5986328125,1.208984375,-0.48486328125,-1.01470947265625,0.70953369140625,1.7852783203125,-56.526984126984125,6.597313797313797,16.49328449328449
25:21.892,0.359375,-0.3623046875,1.982421875,-3.8604736328125,-2.74658203125,-0.5340576171875,11.245421245421245,-18.892307692307693,64.32380952380952,-1.88037109375,-0.080078125,0.5400390625,-3.6163330078125,-2.98309326171875,0.46539306640625,19.042246642246642,-58.77606837606837,44.53186813186813,1.59814453125,1.2158203125,-0.4912109375,-0.9613037109375,0.8544921875,1.6021728515625,-57.57655677655677,4.798046398046398,17.242979242979242
25:22.818,0.306640625,-0.30712890625,2.0068359375,-2.9144287109375,-0.34332275390625,-1.8768310546875,9.296214896214895,-11.695238095238095,66.27301587301586,-1.88037109375,-0.080078125,0.5400390625,-3.6163330078125,-2.98309326171875,0.46539306640625,18.59242979242979,-59.67570207570208,43.33235653235653,1.59814453125,1.2158203125,-0.4912109375,-0.9613037109375,0.8544921875,1.6021728515625,-56.676923076923075,4.648107448107448,16.64322344322344
25:23.696,0.38037109375,-0.59228515625,1.919921875,-1.8768310546875,0.4119873046875,-1.5869140625,8.396581196581197,-13.944322344322345,64.32380952380952,-1.916015625,-0.0048828125,0.48828125,-6.4849853515625,2.93731689453125,0.64849853515625,18.59242979242979,-59.67570207570208,43.33235653235653,1.6005859375,1.2158203125,-0.48828125,-1.15966796875,0.54168701171875,1.6326904296875,-56.676923076923075,4.648107448107448,16.64322344322344
25:24.524,0.37841796875,-0.59326171875,1.92333984375,-0.8544921875,1.129150390625,-0.3509521484375,14.694017094017093,-14.993894993894994,67.47252747252747,-1.9052734375,-0.01953125,0.43701171875,-2.9296875,5.37109375,0.885009765625,17.842735042735043,-59.67570207570208,38.38437118437118,1.60400390625,1.2138671875,-0.48193359375,-1.07574462890625,0.8392333984375,1.65557861328125,-57.72649572649573,6.447374847374848,18.142612942612942
25:25.353,0.33837890625,-0.5927734375,1.93359375,-2.1209716796875,4.058837890625,-2.06756591796875,14.244200244200243,-13.794383394383393,69.57167277167277,-1.9267578125,-0.0185546875,0.4580078125,-2.9754638671875,-4.02069091796875,1.06048583984375,16.943101343101343,-58.77606837606837,36.88498168498168,1.60107421875,1.21728515625,-0.4970703125,-0.9307861328125,0.98419189453125,1.5106201171875,-58.176312576312576,5.697680097680098,17.39291819291819
25:26.182,0.33837890625,-0.5927734375,1.93359375,-3.6163330078125,-0.335693359375,0.18310546875,14.394139194139193,-14.244200244200243,69.12185592185592,-1.890625,-0.0390625,0.4755859375,-3.936767578125,-0.93841552734375,0.41961669921875,17.54285714285714,-58.626129426129424,37.33479853479853,1.60107421875,1.21044921875,-0.486328125,-1.15203857421875,0.7781982421875,1.5411376953125,-54.577777777777776,5.397802197802197,16.64322344322344
25:27.010,0.38916015625,-0.6044921875,1.8994140625,-3.6163330078125,-0.335693359375,0.18310546875,14.394139194139193,-14.244200244200243,69.12185592185592,-1.89599609375,-0.02294921875,0.39208984375,-2.1820068359375,4.547119140625,0.9307861328125,17.093040293040293,-58.176312576312576,37.634676434676436,1.60009765625,1.21337890625,-0.494140625,-0.98419189453125,0.946044921875,1.59454345703125,-56.377045177045176,5.697680097680098,16.343345543345542
25:27.888,0.36474609375,-0.5859375,1.95166015625,-1.83868408203125,-4.669189453125,0.20599365234375,15.743589743589743,-13.194627594627594,66.72283272283272,-1.89599609375,-0.02294921875,0.39208984375,-2.7618408203125,-2.64739990234375,1.01470947265625,17.54285714285714,-57.42661782661782,37.03492063492063,1.60009765625,1.21337890625,-0.494140625,-0.86212158203125,0.80108642578125,1.77001953125,-56.377045177045176,6.447374847374848,16.043467643467643
25:28.717,0.37646484375,-0.58984375,1.9287109375,-2.6092529296875,4.669189453125,-0.31280517578125,15.293772893772893,-14.843956043956043,69.57167277167277,-1.9052734375,-0.037109375,0.4716796875,-2.7618408203125,-2.64739990234375,1.01470947265625,17.54285714285714,-57.42661782661782,37.03492063492063,1.6005859375,1.2021484375,-0.49853515625,-0.86212158203125,0.80108642578125,1.77001953125,-56.377045177045176,6.447374847374848,16.043467643467643
25:29.546,0.39453125,-0.60205078125,1.8984375,-0.92315673828125,3.0364990234375,-1.45721435546875,14.544078144078144,-13.494505494505495,67.32258852258852,-1.90283203125,-0.03466796875,0.458984375,-5.5084228515625,4.15802001953125,0.96893310546875,17.242979242979242,-57.27667887667887,39.583882783882785,1.6044921875,1.21875,-0.48681640625,-1.0223388671875,0.72479248046875,1.73187255859375,-56.377045177045176,5.397802197802197,17.39291819291819
25:30.375,0.4052734375,-0.587890625,1.921875,-1.18255615234375,0.3204345703125,-0.1068115234375,15.143833943833943,-14.244200244200243,68.37216117216117,-1.9091796875,-0.015625,0.3896484375,-3.3721923828125,0.4730224609375,0.5950927734375,17.093040293040293,-59.22588522588522,40.18363858363858,1.59716796875,1.21435546875,-0.4833984375,-1.13677978515625,1.0833740234375,1.52587890625,-55.47741147741147,7.047130647130647,16.49328449328449
25:31.203,0.4052734375,-0.587890625,1.921875,-1.4190673828125,1.09100341796875,0.17547607421875,15.593650793650793,-13.794383394383393,67.32258852258852,-1.9130859375,-0.0283203125,0.47998046875,-2.2430419921875,-1.80816650390625,1.1749267578125,16.793162393162394,-57.87643467643468,35.53553113553114,1.60888671875,1.20849609375,-0.4990234375,-1.07574462890625,0.77056884765625,1.60980224609375,-56.227106227106226,6.297435897435897,16.49328449328449
25:32.081,0.40087890625,-0.59326171875,1.919921875,-1.4190673828125,1.09100341796875,0.17547607421875,14.094261294261294,-14.694017094017093,68.07228327228327,-1.90625,-0.0068359375,0.47021484375,-2.227783203125,2.7923583984375,5.06591796875,17.093040293040293,-58.92600732600732,38.38437118437118,1.60400390625,1.21728515625,-0.49853515625,-0.67901611328125,1.4190673828125,0.91552734375,-55.92722832722833,6.447374847374848,17.39291819291819
25:32.909,0.39990234375,-0.587890625,1.9169921875,-1.13677978515625,0.54931640625,0.57220458984375,14.094261294261294,-14.694017094017093,68.07228327228327,-1.90625,-0.0068359375,0.47021484375,-3.143310546875,-0.091552734375,0.90789794921875,16.193406593406593,-57.57655677655677,37.934554334554335,1.60400390625,1.21728515625,-0.49853515625,-0.732421875,1.007080078125,1.3885498046875,-55.62735042735043,6.147496947496947,16.64322344322344
25:33.738,0.3876953125,-0.6064453125,1.93603515625,-2.49481201171875,-0.84686279296875,0.7476806640625,16.64322344322344,-13.494505494505495,67.62246642246642,-1.88916015625,-0.00537109375,0.4912109375,-3.143310546875,-0.091552734375,0.90789794921875,16.193406593406593,-57.57655677655677,37.934554334554335,1.60009765625,1.20263671875,-0.49365234375,-0.732421875,1.007080078125,1.3885498046875,-55.62735042735043,6.147496947496947,16.64322344322344
25:34.567,0.41015625,-0.59765625,1.9326171875,-1.7547607421875,0.05340576171875,0.29754638671875,15.893528693528692,-14.094261294261294,67.62246642246642,-1.88134765625,0.00830078125,0.5009765625,-2.31170654296875,-0.7781982421875,0.74005126953125,15.443711843711844,-58.326251526251525,41.08327228327228,1.6025390625,1.20703125,-0.48828125,-1.007080078125,0.77056884765625,1.678466796875,-55.62735042735043,6.147496947496947,16.64322344322344
25:35.493,0.40576171875,-0.60693359375,1.91552734375,-1.67083740234375,1.74713134765625,0.2899169921875,14.394139194139193,-16.043467643467643,68.37216117216117,-1.89697265625,0.02880859375,0.51806640625,-3.082275390625,-0.7171630859375,2.960205078125,15.893528693528692,-58.026373626373626,39.583882783882785,1.603515625,1.22265625,-0.4931640625,-1.18255615234375,0.03814697265625,2.2125244140625,-56.676923076923075,6.447374847374848,17.093040293040293
25:36.322,0.32177734375,-0.59375,1.90625,3.021240234375,-12.19940185546875,3.88336181640625,15.443711843711844,-14.993894993894994,67.02271062271062,-1.89208984375,0.115234375,0.59228515625,-1.51824951171875,1.74713134765625,3.204345703125,15.743589743589743,-58.176312576312576,37.03492063492063,1.59521484375,1.21044921875,-0.5029296875,-1.36566162109375,0.57220458984375,1.617431640625,-55.32747252747252,7.496947496947497,16.64322344322344
25:37.151,0.32177734375,-0.59375,1.90625,-1.739501953125,20.843505859375,1.495361328125,15.293772893772893,-14.094261294261294,68.67203907203907,-1.916015625,0.05126953125,0.4130859375,-5.11932373046875,8.2244873046875,1.27410888671875,15.743589743589743,-58.92600732600732,42.28278388278388,1.6064453125,1.203125,-0.49658203125,-0.9307861328125,0.69427490234375,1.65557861328125,-56.526984126984125,5.847619047619047,16.793162393162394
25:38.028,0.3193359375,-0.60986328125,1.916015625,-1.739501953125,20.843505859375,1.495361328125,15.293772893772893,-14.094261294261294,68.67203907203907,-1.9140625,0.052734375,0.42822265625,-3.30352783203125,-3.8909912109375,0.78582763671875,15.743589743589743,-59.67570207570208,35.53553113553114,1.60400390625,1.21240234375,-0.49560546875,-0.90789794921875,0.9307861328125,1.77764892578125,-55.62735042735043,6.447374847374848,17.093040293040293
25:38.857,0.37939453125,-0.5712890625,1.9228515625,-2.99835205078125,-0.45013427734375,1.70135498046875,15.593650793650793,-11.995115995115995,69.57167277167277,-1.9140625,0.052734375,0.42822265625,-3.51715087890625,-0.26702880859375,0.93841552734375,14.394139194139193,-58.026373626373626,36.88498168498168,1.60400390625,1.21240234375,-0.49560546875,-1.0223388671875,1.02996826171875,1.64794921875,-55.62735042735043,6.447374847374848,17.39291819291819
25:39.735,0.357421875,-0.60107421875,1.92431640625,-1.617431640625,6.09588623046875,-0.63323974609375,14.843956043956043,-13.494505494505495,68.67203907203907,-1.8828125,0.04833984375,0.505859375,-3.51715087890625,-0.26702880859375,0.93841552734375,15.443711843711844,-58.77606837606837,39.583882783882785,1.60205078125,1.2080078125,-0.4873046875,-1.0223388671875,1.02996826171875,1.64794921875,-56.526984126984125,6.297435897435897,16.49328449328449
25:40.612,0.34814453125,-0.60888671875,1.9208984375,-0.98419189453125,0.84686279296875,1.2664794921875,15.743589743589743,-13.644444444444444,68.07228327228327,-1.90283203125,0.04052734375,0.505859375,-2.8839111328125,5.2642822265625,0.70953369140625,15.443711843711844,-58.77606837606837,39.583882783882785,1.60009765625,1.20849609375,-0.4921875,-0.8087158203125,0.457763671875,1.79290771484375,-56.526984126984125,6.297435897435897,16.49328449328449
25:41.441,0.3662109375,-0.58642578125,1.92431640625,-1.40380859375,0.69427490234375,-0.05340576171875,15.443711843711844,-15.443711843711844,67.77240537240537,-1.89599609375,0.0390625,0.4853515625,-3.96728515625,-2.87628173828125,0.946044921875,14.694017094017093,-58.326251526251525,38.234432234432234,1.61328125,1.20703125,-0.4951171875,-0.8392333984375,0.84686279296875,1.67083740234375,-55.62735042735043,6.447374847374848,16.043467643467643
25:42.270,0.3515625,-0.60009765625,1.921875,-1.57928466796875,0.3509521484375,0.40435791015625,14.843956043956043,-14.094261294261294,67.62246642246642,-1.8935546875,0.0439453125,0.5302734375,-2.69317626953125,-1.64031982421875,0.9307861328125,15.143833943833943,-58.326251526251525,37.934554334554335,1.59912109375,1.2119140625,-0.4990234375,-1.10626220703125,0.4730224609375,1.708984375,-57.57655677655677,4.798046398046398,16.49328449328449
25:43.098,0.3515625,-0.60009765625,1.921875,-1.57928466796875,0.3509521484375,0.40435791015625,15.743589743589743,-14.244200244200243,67.77240537240537,-1.880859375,0.0380859375,0.51123046875,-2.5787353515625,3.5552978515625,1.5106201171875,16.043467643467643,-59.22588522588522,41.23321123321123,1.60546875,1.2109375,-0.49169921875,-1.19781494140625,1.190185546875,1.46484375,-56.526984126984125,5.547741147741148,17.54285714285714
25:43.928,0.25732421875,-0.6025390625,1.9501953125,-0.19073486328125,7.04193115234375,0.92315673828125,15.743589743589743,-14.244200244200243,67.77240537240537,-1.88330078125,0.0478515625,0.5185546875,-3.45611572265625,-2.23541259765625,0.9918212890625,14.694017094017093,-57.57655677655677,38.234432234432234,1.60693359375,1.2080078125,-0.5029296875,-0.80108642578125,0.9765625,1.5869140625,-55.62735042735043,7.197069597069596,17.692796092796094
25:44.804,0.5146484375,-0.578125,1.88232421875,-2.6092529296875,-0.72479248046875,-1.89208984375,14.244200244200243,-13.044688644688645,68.22222222222221,-1.88330078125,0.0478515625,0.5185546875,-3.45611572265625,-2.23541259765625,0.9918212890625,16.793162393162394,-58.92600732600732,40.93333333333333,1.60693359375,1.2080078125,-0.5029296875,-0.80108642578125,0.9765625,1.5869140625,-55.47741147741147,7.347008547008547,17.842735042735043
25:45.682,0.34619140625,-0.5703125,1.93994140625,-1.7852783203125,2.716064453125,-0.91552734375,16.49328449328449,-13.194627594627594,67.02271062271062,-1.87353515625,0.0478515625,0.53125,-3.47137451171875,-1.434326171875,1.556396484375,16.793162393162394,-58.92600732600732,40.93333333333333,1.60498046875,1.21875,-0.50146484375,-1.129150390625,0.9918212890625,1.64031982421875,-55.47741147741147,7.347008547008547,17.842735042735043
25:46.513,0.37109375,-0.59912109375,1.9638671875,-1.10626220703125,1.41143798828125,0.12969970703125,15.443711843711844,-13.644444444444444,68.37216117216117,-1.900390625,0.0390625,0.4541015625,-2.44903564453125,2.8533935546875,0.83160400390625,14.694017094017093,-60.275457875457874,39.583882783882785,1.60791015625,1.21337890625,-0.4912109375,-1.31988525390625,0.885009765625,1.861572265625,-55.027594627594624,6.597313797313797,15.143833943833943
25:47.339,0.3544921875,-0.5908203125,1.9501953125,-5.1116943359375,7.62939453125,0.8392333984375,14.544078144078144,-12.294993894993894,67.62246642246642,-1.89111328125,0.02294921875,0.5087890625,-3.2501220703125,-4.73785400390625,0.885009765625,14.694017094017093,-57.57655677655677,38.98412698412698,1.599609375,1.2109375,-0.5,-0.99945068359375,0.74005126953125,1.495361328125,-55.47741147741147,5.547741147741148,16.793162393162394
25:48.168,0.3544921875,-0.5908203125,1.9501953125,-1.0528564453125,-9.07135009765625,-0.48828125,17.39291819291819,-13.794383394383393,68.22222222222221,-1.87353515625,0.02587890625,0.52978515625,-4.81414794921875,0.79345703125,0.66375732421875,15.443711843711844,-56.526984126984125,40.033699633699634,1.60107421875,1.21142578125,-0.494140625,-0.885009765625,0.75531005859375,1.64031982421875,-55.47741147741147,7.047130647130647,16.49328449328449
25:48.997,0.2783203125,-0.630859375,1.92626953125,-1.0528564453125,-9.07135009765625,-0.48828125,17.39291819291819,-13.794383394383393,68.22222222222221,-1.89453125,0.0478515625,0.45751953125,-2.93731689453125,1.94549560546875,1.04522705078125,14.394139194139193,-58.026373626373626,40.033699633699634,1.59423828125,1.2119140625,-0.49853515625,-0.78582763671875,0.45013427734375,1.64794921875,-54.877655677655675,5.697680097680098,17.39291819291819
25:49.826,0.28857421875,-0.59521484375,1.9443359375,-2.8228759765625,2.35748291015625,-2.44903564453125,15.293772893772893,-10.195848595848595,68.97191697191697,-1.89453125,0.0478515625,0.45751953125,-2.93731689453125,1.94549560546875,1.04522705078125,15.743589743589743,-58.626129426129424,38.084493284493284,1.59423828125,1.2119140625,-0.49853515625,-0.78582763671875,0.45013427734375,1.64794921875,-56.377045177045176,4.947985347985348,17.39291819291819
25:50.654,0.42578125,-0.51806640625,1.94189453125,1.02996826171875,6.5155029296875,13.8092041015625,14.394139194139193,-12.894749694749695,69.42173382173382,-1.84912109375,-0.0830078125,0.57958984375,-7.20977783203125,-3.7384033203125,-0.4425048828125,15.743589743589743,-58.626129426129424,38.084493284493284,1.599609375,1.20458984375,-0.490234375,-0.84686279296875,1.251220703125,1.31988525390625,-56.377045177045176,4.947985347985348,17.39291819291819
25:51.483,0.16796875,-0.48681640625,2.18212890625,-0.54168701171875,23.36883544921875,-6.9580078125,16.193406593406593,-15.443711843711844,68.37216117216117,-1.85546875,-0.0634765625,0.5654296875,-4.49371337890625,2.716064453125,1.495361328125,17.842735042735043,-59.975579975579976,43.03247863247863,1.6025390625,1.2158203125,-0.50634765625,-0.8087158203125,0.98419189453125,1.739501953125,-55.92722832722833,6.747252747252747,16.343345543345542
25:52.312,0.22509765625,-0.47509765625,1.96044921875,-3.39508056640625,-0.274658203125,-0.99945068359375,11.845177045177044,-12.894749694749695,67.77240537240537,-1.89599609375,-0.03955078125,0.5185546875,-2.227783203125,-2.5634765625,1.0528564453125,18.44249084249084,-59.07594627594627,41.38315018315018,1.60302734375,1.2060546875,-0.50439453125,-1.07574462890625,0.58746337890625,1.41143798828125,-57.27667887667887,5.847619047619047,17.242979242979242
25:53.189,0.22509765625,-0.47509765625,1.96044921875,-16.0675048828125,-3.68499755859375,-39.7796630859375,12.444932844932845,-10.945543345543346,68.67203907203907,-1.89794921875,-0.0908203125,0.57275390625,-4.2724609375,1.56402587890625,0.37384033203125,16.793162393162394,-59.22588522588522,40.48351648351648,1.59619140625,1.20849609375,-0.498046875,-0.9613037109375,0.701904296875,1.70135498046875,-55.47741147741147,5.547741147741148,17.54285714285714
25:54.018,0.365234375,-0.419921875,1.89794921875,-16.0675048828125,-3.68499755859375,-39.7796630859375,12.444932844932845,-10.945543345543346,68.67203907203907,-1.88232421875,-0.07177734375,0.53369140625,-1.19781494140625,4.1656494140625,1.6326904296875,16.943101343101343,-58.026373626373626,43.18241758241758,1.60498046875,1.2119140625,-0.49560546875,-0.64849853515625,2.11334228515625,1.6326904296875,-56.826862026862024,6.297435897435897,17.242979242979242
25:54.945,0.44580078125,-0.53173828125,2.00439453125,-4.0435791015625,-0.00762939453125,-6.18743896484375,14.394139194139193,-14.244200244200243,66.42295482295482,-1.88232421875,-0.07177734375,0.53369140625,-4.1656494140625,0.06866455078125,1.51824951171875,18.59242979242979,-58.626129426129424,42.58266178266178,1.591796875,1.20751953125,-0.50244140625,-1.007080078125,1.0528564453125,1.434326171875,-57.12673992673992,5.697680097680098,17.093040293040293
25:55.822,0.57080078125,-0.43701171875,2.0,-2.78472900390625,7.94219970703125,-0.69427490234375,14.094261294261294,-14.694017094017093,67.02271062271062,-1.8681640625,-0.076171875,0.57568359375,3.53240966796875,-4.669189453125,12.939453125,18.44249084249084,-57.27667887667887,41.683028083028084,1.591796875,1.20751953125,-0.50244140625,-1.79290771484375,0.030517578125,2.0904541015625,-55.47741147741147,5.847619047619047,17.242979242979242
25:56.699,0.39501953125,-0.5927734375,1.90771484375,-7.4462890625,14.65606689453125,-5.31005859375,13.494505494505495,-15.593650793650793,65.82319902319902,-1.86279296875,0.10107421875,0.6201171875,3.53240966796875,-4.669189453125,12.939453125,18.44249084249084,-57.27667887667887,41.683028083028084,1.609375,1.208984375,-0.49267578125,-1.79290771484375,0.030517578125,2.0904541015625,-55.47741147741147,5.847619047619047,17.242979242979242
25:57.577,0.3466796875,-0.58740234375,1.939453125,-1.22833251953125,2.3956298828125,-1.40380859375,14.843956043956043,-14.094261294261294,69.27179487179487,-1.90771484375,0.02734375,0.4609375,-1.2359619140625,6.75201416015625,0.9307861328125,14.394139194139193,-59.07594627594627,42.43272283272283,1.6123046875,1.21484375,-0.49365234375,-1.1749267578125,0.762939453125,1.42669677734375,-57.42661782661782,4.947985347985348,17.093040293040293
25:58.406,0.4462890625,-0.58837890625,1.9052734375,-0.09918212890625,2.0599365234375,-0.49591064453125,15.443711843711844,-15.443711843711844,67.77240537240537,-1.904296875,0.03076171875,0.453125,-3.59344482421875,-3.1280517578125,1.03759765625,15.743589743589743,-58.626129426129424,38.084493284493284,1.6044921875,1.21044921875,-0.4931640625,-0.91552734375,1.24359130859375,1.52587890625,-57.27667887667887,7.047130647130647,18.59242979242979
25:59.234,0.4462890625,-0.58837890625,1.9052734375,-1.8463134765625,2.5634765625,0.28228759765625,15.143833943833943,-16.043467643467643,69.42173382173382,-1.91064453125,0.02197265625,0.4814453125,-1.6326904296875,-0.4119873046875,1.5106201171875,15.293772893772893,-59.22588522588522,36.285225885225884,1.60693359375,1.20361328125,-0.484375,-0.7171630859375,0.74005126953125,1.6021728515625,-57.27667887667887,6.597313797313797,16.793162393162394
26:00.161,0.40966796875,-0.59912109375,1.916015625,19.47784423828125,11.75689697265625,5.035400390625,16.49328449328449,-14.244200244200243,67.77240537240537,-1.88037109375,-0.00244140625,0.48681640625,0.30517578125,2.02178955078125,-2.89154052734375,18.142612942612942,-58.626129426129424,37.634676434676436,1.6064453125,1.21728515625,-0.4921875,-1.16729736328125,0.45013427734375,1.46484375,-56.227106227106226,5.847619047619047,15.743589743589743
26:00.989,0.87060546875,-0.197265625,1.8642578125,19.47784423828125,11.75689697265625,5.035400390625,16.49328449328449,-14.244200244200243,67.77240537240537,-1.8857421875,-0.02392578125,0.48974609375,-5.2642822265625,-2.01416015625,2.288818359375,17.992673992673993,-59.07594627594627,40.33357753357753,1.60693359375,1.208984375,-0.48779296875,-1.02996826171875,1.46484375,1.8157958984375,-56.227106227106226,5.247863247863248,17.54285714285714
26:01.818,0.37548828125,-0.3828125,2.0517578125,-8.4075927734375,-4.32586669921875,-1.94549560546875,10.495726495726496,-15.743589743589743,64.62368742368741,-1.8857421875,-0.02392578125,0.48974609375,-5.2642822265625,-2.01416015625,2.288818359375,17.692796092796094,-59.07594627594627,40.033699633699634,1.60693359375,1.208984375,-0.48779296875,-1.02996826171875,1.46484375,1.8157958984375,-55.47741147741147,6.597313797313797,15.743589743589743
26:02.647,0.43017578125,-0.51123046875,1.8388671875,3.7384033203125,-4.7607421875,25.74920654296875,11.245421245421245,-12.594871794871795,67.77240537240537,-1.88720703125,-0.01171875,0.533203125,-4.18853759765625,0.274658203125,1.67083740234375,17.692796092796094,-59.07594627594627,40.033699633699634,1.60595703125,1.21923828125,-0.4853515625,-0.946044921875,0.90789794921875,1.8768310546875,-55.47741147741147,6.597313797313797,15.743589743589743
26:03.476,0.6904296875,0.00927734375,1.75537109375,1.15966796875,20.8740234375,8.2855224609375,13.644444444444444,-14.993894993894994,66.42295482295482,-1.8798828125,-0.076171875,0.56103515625,-4.05120849609375,-0.78582763671875,0.1373291015625,17.692796092796094,-58.77606837606837,41.08327228327228,1.61572265625,1.203125,-0.48974609375,-1.251220703125,0.54168701171875,1.6937255859375,-57.27667887667887,5.547741147741148,17.842735042735043
26:04.304,0.1796875,-0.6201171875,1.93017578125,-1.88446044921875,-4.69970703125,0.244140625,10.645665445665445,-14.544078144078144,66.27301587301586,-1.87548828125,0.00537109375,0.50634765625,-3.45611572265625,-3.41796875,2.01416015625,17.842735042735043,-59.975579975579976,43.03247863247863,1.60595703125,1.21728515625,-0.50048828125,-0.96893310546875,0.55694580078125,1.708984375,-56.227106227106226,4.798046398046398,16.193406593406593
26:05.182,0.1796875,-0.6201171875,1.93017578125,-1.30462646484375,-4.96673583984375,1.07574462890625,16.49328449328449,-11.395360195360196,70.17142857142856,-1.87646484375,0.02783203125,0.52978515625,-3.25775146484375,-0.4119873046875,0.87738037109375,15.443711843711844,-59.07594627594627,38.98412698412698,1.60205078125,1.2099609375,-0.49462890625,-0.92315673828125,0.81634521484375,1.5716552734375,-57.72649572649573,6.747252747252747,17.093040293040293
26:06.012,0.234375,-0.60205078125,1.95849609375,-1.30462646484375,-4.96673583984375,1.07574462890625,16.49328449328449,-11.395360195360196,70.17142857142856,-1.90283203125,0.015625,0.43994140625,-4.58526611328125,3.08990478515625,1.38092041015625,14.244200244200243,-58.626129426129424,39.883760683760684,1.61279296875,1.20458984375,-0.48876953125,-0.87738037109375,0.67138671875,1.44195556640625,-56.377045177045176,4.648107448107448,17.39291819291819
26:06.839,0.29443359375,-0.60302734375,1.93115234375,-0.9765625,0.5950927734375,0.5035400390625,14.694017094017093,-13.194627594627594,70.77118437118438,-1.90283203125,0.015625,0.43994140625,-4.58526611328125,3.08990478515625,1.38092041015625,15.893528693528692,-59.07594627594627,36.435164835164834,1.61279296875,1.20458984375,-0.48876953125,-0.87738037109375,0.67138671875,1.44195556640625,-56.526984126984125,4.048351648351648,17.242979242979242
26:07.668,0.30078125,-0.58984375,1.94970703125,-1.2359619140625,0.6103515625,-0.1220703125,15.743589743589743,-12.594871794871795,68.82197802197803,-1.89794921875,0.0283203125,0.50439453125,-4.05120849609375,-0.396728515625,1.09100341796875,15.893528693528692,-59.07594627594627,36.435164835164834,1.6044921875,1.21044921875,-0.48876953125,-1.22833251953125,0.60272216796875,1.617431640625,-56.526984126984125,4.048351648351648,17.242979242979242
26:08.498,0.314453125,-0.5966796875,1.94287109375,-1.64794921875,0.8697509765625,0.09918212890625,14.544078144078144,-13.494505494505495,71.07106227106227,-1.900390625,0.029296875,0.5087890625,-1.9683837890625,-1.07574462890625,1.30462646484375,14.694017094017093,-58.326251526251525,40.33357753357753,1.60302734375,1.20751953125,-0.4892578125,-0.91552734375,0.84686279296875,1.70135498046875,-55.027594627594624,4.498168498168498,16.49328449328449
26:09.326,0.32421875,-0.6044921875,1.9248046875,-1.47247314453125,0.946044921875,0.274658203125,15.443711843711844,-12.145054945054945,69.42173382173382,-1.9033203125,0.0166015625,0.4697265625,-2.105712890625,-0.93841552734375,1.1749267578125,14.244200244200243,-58.92600732600732,38.68424908424908,1.6083984375,1.21044921875,-0.5009765625,-0.91552734375,0.885009765625,1.51824951171875,-55.92722832722833,6.147496947496947,16.64322344322344
26:10.155,0.32421875,-0.6044921875,1.9248046875,-1.47247314453125,0.946044921875,0.274658203125,13.794383394383393,-11.695238095238095,70.02148962148962,-1.89501953125,-0.01904296875,0.607421875,-11.63482666015625,0.7171630859375,-3.8299560546875,16.043467643467643,-59.975579975579976,37.33479853479853,1.611328125,1.20458984375,-0.49365234375,-1.1138916015625,1.41143798828125,1.922607421875,-55.32747252747252,4.947985347985348,16.64322344322344
26:11.081,0.4970703125,-0.40869140625,1.91162109375,-13.32855224609375,-6.8206787109375,7.14874267578125,12.145054945054945,-13.794383394383393,67.62246642246642,-1.93359375,-0.15966796875,0.54638671875,-1.251220703125,4.73785400390625,1.74713134765625,17.242979242979242,-58.77606837606837,43.78217338217338,1.59423828125,1.21435546875,-0.5029296875,-1.18255615234375,0.457763671875,1.6326904296875,-55.47741147741147,5.847619047619047,16.793162393162394
26:11.910,0.48291015625,-0.30810546875,1.92724609375,-16.86859130859375,4.95147705078125,-46.905517578125,12.145054945054945,-13.794383394383393,67.62246642246642,-1.93359375,-0.15966796875,0.54638671875,-5.27191162109375,-6.134033203125,-1.64031982421875,20.99145299145299,-58.326251526251525,44.98168498168498,1.59423828125,1.21435546875,-0.5029296875,-1.02996826171875,-0.06103515625,1.56402587890625,-55.77728937728938,7.347008547008547,17.242979242979242
26:12.787,0.69677734375,-0.2509765625,1.93408203125,54.48150634765625,9.979248046875,64.5751953125,13.194627594627594,-18.44249084249084,63.42417582417582,-1.86767578125,-0.14990234375,0.560546875,-5.27191162109375,-6.134033203125,-1.64031982421875,20.69157509157509,-58.176312576312576,44.08205128205128,1.60107421875,1.21240234375,-0.48828125,-1.02996826171875,-0.06103515625,1.56402587890625,-56.826862026862024,5.547741147741148,16.49328449328449
26:13.616,0.4208984375,-0.7978515625,1.921875,-7.19451904296875,17.70782470703125,-3.173828125,9.146275946275946,-18.29255189255189,63.27423687423687,-1.8701171875,-0.12451171875,0.6904296875,-4.425048828125,-4.6234130859375,9.3994140625,20.69157509157509,-58.176312576312576,44.08205128205128,1.6064453125,1.20654296875,-0.49951171875,-0.6103515625,0.86212158203125,1.2359619140625,-56.826862026862024,5.547741147741148,16.49328449328449
26:14.445,0.11376953125,-0.62841796875,1.95849609375,-3.33404541015625,25.01678466796875,-7.78961181640625,16.49328449328449,-12.894749694749695,68.37216117216117,-1.91357421875,0.01220703125,0.47119140625,-2.99835205078125,8.20159912109375,0.52642822265625,17.242979242979242,-58.326251526251525,45.28156288156288,1.6044921875,1.20947265625,-0.5009765625,-0.81634521484375,1.007080078125,1.8157958984375,-56.377045177045176,6.447374847374848,17.39291819291819
26:15.274,0.2373046875,-0.599609375,1.92626953125,-1.02996826171875,0.7476806640625,0.69427490234375,15.893528693528692,-9.146275946275946,71.07106227106227,-1.90771484375,0.02978515625,0.44140625,-2.17437744140625,-1.13677978515625,0.66375732421875,16.043467643467643,-58.92600732600732,37.634676434676436,1.61376953125,1.2158203125,-0.486328125,-0.98419189453125,0.6866455078125,1.67083740234375,-56.676923076923075,6.747252747252747,17.692796092796094
26:16.103,0.2373046875,-0.599609375,1.92626953125,-1.02996826171875,0.7476806640625,0.69427490234375,15.293772893772893,-10.945543345543346,70.02148962148962,-1.89404296875,0.01708984375,0.56005859375,-11.1083984375,-10.92529296875,6.64520263671875,14.993894993894994,-59.975579975579976,36.58510378510378,1.60693359375,1.21630859375,-0.490234375,-0.95367431640625,0.16021728515625,1.54876708984375,-56.676923076923075,4.947985347985348,17.39291819291819
26:16.931,0.07763671875,-0.5869140625,1.96435546875,-1.9073486328125,-3.23486328125,-4.41741943359375,15.293772893772893,-10.945543345543346,70.02148962148962,-1.89404296875,0.01708984375,0.56005859375,-3.3416748046875,5.92041015625,3.0670166015625,14.993894993894994,-60.72527472527472,40.48351648351648,1.60693359375,1.21630859375,-0.490234375,-0.78582763671875,1.42669677734375,1.28936767578125,-56.526984126984125,6.297435897435897,18.29255189255189
26:17.760,0.25341796875,-0.59228515625,1.95556640625,-1.5106201171875,0.885009765625,1.007080078125,15.293772893772893,-11.245421245421245,70.32136752136752,-1.89111328125,0.01025390625,0.484375,-3.3416748046875,5.92041015625,3.0670166015625,14.993894993894994,-60.72527472527472,40.48351648351648,1.60400390625,1.20458984375,-0.48876953125,-0.78582763671875,1.42669677734375,1.28936767578125,-56.526984126984125,6.297435897435897,18.29255189255189
26:18.589,0.26171875,-0.58935546875,1.9423828125,-3.143310546875,-4.98199462890625,1.18255615234375,16.64322344322344,-12.744810744810744,70.32136752136752,-1.88671875,0.0185546875,0.4228515625,-2.3345947265625,-1.6632080078125,-1.67083740234375,14.694017094017093,-59.52576312576312,38.234432234432234,1.60791015625,1.2060546875,-0.49267578125,-1.2359619140625,0.79345703125,1.6326904296875,-55.77728937728938,5.547741147741148,17.54285714285714
26:19.515,0.29541015625,-0.59423828125,1.9267578125,-0.30517578125,7.9345703125,0.29754638671875,16.343345543345542,-12.294993894993894,67.62246642246642,-1.8837890625,0.04443359375,0.47607421875,-5.02777099609375,-5.24139404296875,1.80816650390625,14.993894993894994,-57.87643467643468,35.53553113553114,1.60498046875,1.21044921875,-0.50634765625,-0.9002685546875,1.02996826171875,1.617431640625,-56.377045177045176,7.496947496947497,17.093040293040293
26:20.392,0.26806640625,-0.5869140625,1.95263671875,-3.56292724609375,-1.5106201171875,4.23431396484375,16.793162393162394,-11.095482295482295,68.37216117216117,-1.89453125,0.0341796875,0.494140625,-3.3111572265625,-1.5106201171875,7.1563720703125,17.093040293040293,-58.176312576312576,37.33479853479853,1.59619140625,1.2041015625,-0.4921875,-1.6021728515625,-0.06103515625,2.166748046875,-55.32747252747252,7.496947496947497,16.043467643467643
26:21.221,0.26806640625,-0.5869140625,1.95263671875,-3.5858154296875,-0.4119873046875,-1.09100341796875,16.64322344322344,-12.744810744810744,70.02148962148962,-1.88671875,0.05419921875,0.5234375,-2.78472900390625,-2.15911865234375,-0.091552734375,14.244200244200243,-58.626129426129424,39.433943833943836,1.6015625,1.2080078125,-0.4990234375,-0.90789794921875,0.640869140625,1.60980224609375,-55.77728937728938,5.847619047619047,17.242979242979242
26:22.099,0.34521484375,-0.6123046875,1.85986328125,-3.5858154296875,-0.4119873046875,-1.09100341796875,16.343345543345542,-11.995115995115995,68.67203907203907,-1.8916015625,0.0537109375,0.52197265625,-3.82232666015625,0.42724609375,1.007080078125,14.244200244200243,-59.22588522588522,38.38437118437118,1.599609375,1.20751953125,-0.49365234375,-0.99945068359375,0.66375732421875,1.678466796875,-55.77728937728938,5.847619047619047,15.743589743589743
26:22.927,0.287109375,-0.59423828125,1.9208984375,-1.6021728515625,3.51715087890625,-0.49591064453125,16.343345543345542,-11.995115995115995,68.67203907203907,-1.9013671875,0.05029296875,0.443359375,-2.0294189453125,6.11114501953125,0.885009765625,14.394139194139193,-59.825641025641026,39.583882783882785,1.60546875,1.2041015625,-0.48828125,-0.9918212890625,0.91552734375,1.59454345703125,-55.92722832722833,5.397802197802197,16.343345543345542
26:23.805,0.3134765625,-0.5986328125,1.92529296875,-1.46484375,0.6561279296875,0.1220703125,16.193406593406593,-11.395360195360196,69.12185592185592,-1.9013671875,0.05029296875,0.443359375,-2.0294189453125,6.11114501953125,0.885009765625,15.443711843711844,-58.326251526251525,38.53431013431013,1.60546875,1.2041015625,-0.48828125,-0.9918212890625,0.91552734375,1.59454345703125,-57.12673992673992,6.447374847374848,17.39291819291819
26:24.634,0.314453125,-0.60986328125,1.93505859375,-1.556396484375,1.33514404296875,-0.0762939453125,15.593650793650793,-13.044688644688645,68.67203907203907,-1.9072265625,0.052734375,0.380859375,-3.509521484375,-1.09100341796875,0.4730224609375,15.443711843711844,-58.326251526251525,38.53431013431013,1.607421875,1.20947265625,-0.4970703125,-1.18255615234375,0.579833984375,1.74713134765625,-57.12673992673992,6.447374847374848,17.39291819291819
26:25.462,0.30126953125,-0.607421875,1.92431640625,-1.35040283203125,1.10626220703125,0.2899169921875,15.443711843711844,-12.894749694749695,69.87155067155066,-1.91796875,0.05322265625,0.42724609375,-2.99835205078125,-1.9073486328125,1.35040283203125,16.043467643467643,-57.87643467643468,33.13650793650793,1.58935546875,1.20654296875,-0.50634765625,-1.28936767578125,0.6256103515625,1.8463134765625,-58.026373626373626,7.347008547008547,16.793162393162394
26:26.291,0.3134765625,-0.59716796875,1.9267578125,-1.16729736328125,1.068115234375,0.244140625,17.093040293040293,-11.695238095238095,68.67203907203907,-1.89892578125,0.0380859375,0.48876953125,-2.31170654296875,-1.18255615234375,0.8697509765625,15.143833943833943,-59.07594627594627,36.88498168498168,1.6025390625,1.21337890625,-0.49755859375,-1.24359130859375,0.762939453125,1.48773193359375,-57.42661782661782,6.447374847374848,17.093040293040293
26:27.120,0.3134765625,-0.59716796875,1.9267578125,-1.16729736328125,1.068115234375,0.244140625,15.743589743589743,-13.944322344322345,68.82197802197803,-1.89892578125,0.05029296875,0.4228515625,-2.78472900390625,-0.1678466796875,1.19781494140625,16.64322344322344,-58.026373626373626,37.18485958485958,1.60400390625,1.2177734375,-0.478515625,-1.1138916015625,0.823974609375,1.64031982421875,-56.227106227106226,7.347008547008547,17.54285714285714
