time,hand_accelerometer_x,hand_accelerometer_y,hand_accelerometer_z,hand_gyroscope_x,hand_gyroscope_y,hand_gyroscope_z,hand_magnetometer_x,hand_magnetometer_y,hand_magnetometer_z,ankle_accelerometer_x,ankle_accelerometer_y,ankle_accelerometer_z,ankle_gyroscope_x,ankle_gyroscope_y,ankle_gyroscope_z,ankle_magnetometer_x,ankle_magnetometer_y,ankle_magnetometer_z,chest_accelerometer_x,chest_accelerometer_y,chest_accelerometer_z,chest_gyroscope_x,chest_gyroscope_y,chest_gyroscope_z,chest_magnetometer_x,chest_magnetometer_y,chest_magnetometer_z
55:53.695,-1.99169921875,0.22509765625,0.232421875,-14.984130859375,6.8359375,3.28826904296875,7.796825396825397,33.58632478632479,-28.488400488400487,0.44384765625,2.2138671875,-0.02099609375,2.25830078125,4.24957275390625,15.08331298828125,-31.936996336996337,-86.21489621489621,-4.947985347985348,1.23291015625,1.58056640625,-0.21630859375,1.9073486328125,-4.29534912109375,-8.5906982421875,-54.577777777777776,35.08571428571428,17.692796092796094
55:54.524,-1.84912109375,-0.2724609375,-0.27880859375,-31.53228759765625,13.9617919921875,-4.02069091796875,6.447374847374848,36.73504273504273,-25.18974358974359,0.0595703125,1.93115234375,0.125,6.91986083984375,29.296875,-6.9122314453125,-32.536752136752135,-86.36483516483516,-5.547741147741148,0.57275390625,1.646484375,-0.5615234375,-35.8734130859375,138.99993896484375,101.20391845703125,-42.58266178266178,27.13894993894994,30.287667887667887
55:55.353,-1.837890625,-0.34814453125,0.01171875,13.2598876953125,-5.37109375,-2.95257568359375,11.095482295482295,37.18485958485958,-26.539194139194137,0.3486328125,1.873046875,0.27587890625,-3.90625,-10.29205322265625,-3.73077392578125,-34.78583638583638,-83.96581196581197,-3.598534798534798,1.0625,1.75439453125,-0.38818359375,-2.14385986328125,-17.60101318359375,-21.64459228515625,-63.57411477411477,37.18485958485958,10.345787545787545
55:56.230,-1.837890625,-0.34814453125,0.01171875,-41.68701171875,-12.7410888671875,2.7618408203125,2.548962148962149,44.23199023199023,-19.64200244200244,0.12109375,1.9951171875,0.328125,-6.378173828125,29.79278564453125,16.79229736328125,-37.934554334554335,-90.11330891330891,-6.297435897435897,-2.40869140625,3.35498046875,-1.33056640625,81.6497802734375,69.70977783203125,-12.5885009765625,-73.62002442002442,34.635897435897434,0.8996336996336995
55:57.205,-1.95947265625,-0.28369140625,-0.1962890625,-61.57684326171875,-8.72039794921875,-6.6986083984375,12.594871794871795,49.030036630036626,-11.395360195360196,0.3076171875,1.86865234375,0.119140625,9.07135009765625,60.75286865234375,17.8375244140625,-45.88131868131868,-88.6139194139194,-2.6989010989010986,0.92724609375,1.8408203125,-0.06982421875,-20.66802978515625,1.5411376953125,-10.49041748046875,-100.15921855921856,29.088156288156288,-16.943101343101343
55:58.083,-1.65673828125,-0.3212890625,-0.052734375,-61.57684326171875,-8.72039794921875,-6.6986083984375,12.594871794871795,49.030036630036626,-11.395360195360196,0.068359375,2.001953125,0.26220703125,12.76397705078125,108.00933837890625,17.2576904296875,-50.07960927960928,-99.85934065934066,-1.799267399267399,1.109375,1.92138671875,-0.91650390625,-12.10784912109375,95.80230712890625,111.8621826171875,-94.91135531135531,24.589987789987788,-52.47863247863248
55:59.009,-1.84326171875,-0.43359375,-0.3642578125,-111.32049560546875,2.5177001953125,2.8839111328125,3.4485958485958483,49.77973137973138,-7.197069597069596,0.48974609375,1.875,0.24560546875,0.9613037109375,-6.90460205078125,-8.8653564453125,-41.08327228327228,-99.25958485958486,6.747252747252747,0.9423828125,1.81103515625,-0.26416015625,3.63922119140625,13.18359375,-24.749755859375,-67.32258852258852,-30.287667887667887,-16.343345543345542
55:59.838,-2.0048828125,-0.00732421875,-0.02978515625,15.86151123046875,-21.2554931640625,8.270263671875,4.648107448107448,44.98168498168498,4.1982905982905985,0.48974609375,1.875,0.24560546875,0.9613037109375,-6.90460205078125,-8.8653564453125,-32.98656898656898,-99.1096459096459,23.54041514041514,0.9423828125,1.81103515625,-0.26416015625,-96.21429443359375,-3.4637451171875,125.48065185546875,-50.07960927960928,-22.64078144078144,-8.246642246642246
56:00.764,-2.23681640625,-0.2353515625,-0.3388671875,-25.01678466796875,-6.011962890625,3.509521484375,10.345787545787545,40.63345543345543,11.995115995115995,0.1142578125,2.0908203125,0.1064453125,-14.19830322265625,13.74053955078125,-0.60272216796875,-32.98656898656898,-99.1096459096459,23.54041514041514,0.64111328125,2.46728515625,-0.29052734375,-96.21429443359375,-3.4637451171875,125.48065185546875,-24.739926739926737,-21.59120879120879,24.14017094017094
56:01.642,-1.78955078125,-0.01025390625,0.03515625,47.8668212890625,-3.21197509765625,10.68115234375,14.843956043956043,36.435164835164834,16.043467643467643,0.4443359375,1.91845703125,0.38671875,-9.51385498046875,-54.534912109375,-2.79998779296875,-28.788278388278385,-98.21001221001221,27.88864468864469,1.1005859375,1.74658203125,-0.37255859375,2.50244140625,-12.2528076171875,-27.58026123046875,-24.739926739926737,-21.59120879120879,24.14017094017094
56:02.519,-1.9052734375,-0.2236328125,-0.091796875,-52.49786376953125,-1.373291015625,-2.3651123046875,9.146275946275946,33.73626373626374,19.042246642246642,0.0576171875,1.98388671875,0.26806640625,5.76019287109375,49.6673583984375,4.53948974609375,-22.34090354090354,-102.25836385836385,34.93577533577533,-0.1318359375,2.12451171875,-0.75537109375,-32.958984375,-82.855224609375,27.6641845703125,-26.539194139194137,-5.997557997557998,0.7496947496947497
56:03.397,-1.90283203125,-0.35107421875,-0.0703125,34.0728759765625,15.25115966796875,-1.15966796875,16.193406593406593,31.637118437118435,20.69157509157509,0.33447265625,1.96337890625,0.40625,-5.79071044921875,-42.73223876953125,-10.96343994140625,-23.54041514041514,-96.1108669108669,31.487179487179485,0.8232421875,2.099609375,-0.361328125,-15.19012451171875,-37.200927734375,-48.21014404296875,-43.33235653235653,-14.244200244200243,6.597313797313797
56:04.275,-1.90283203125,-0.35107421875,-0.0703125,-8.514404296875,-6.88934326171875,5.6610107421875,19.49206349206349,33.58632478632479,19.49206349206349,0.0576171875,1.953125,0.24462890625,1.44195556640625,8.67462158203125,15.37322998046875,-21.741147741147742,-95.36117216117216,40.033699633699634,1.13330078125,1.8603515625,0.15576171875,28.40423583984375,-5.096435546875,-28.0914306640625,-61.774847374847376,-2.249084249084249,-14.394139194139193
56:05.201,-1.76904296875,-0.31982421875,-0.22802734375,103.67584228515625,-5.828857421875,3.9825439453125,11.095482295482295,28.93821733821734,17.842735042735043,0.55810546875,1.99755859375,0.43505859375,-14.41192626953125,-98.4649658203125,-16.18194580078125,-20.39169719169719,-99.85934065934066,34.036141636141636,0.93701171875,1.83740234375,-0.22607421875,-43.15185546875,-86.38763427734375,-24.25384521484375,-13.794383394383393,-10.645665445665445,-6.747252747252747
56:06.078,-2.0634765625,-0.06201171875,0.2587890625,103.67584228515625,-5.828857421875,3.9825439453125,11.095482295482295,28.93821733821734,17.842735042735043,-0.09326171875,1.97412109375,0.21630859375,-15.411376953125,-23.7274169921875,5.1116943359375,-17.992673992673993,-105.10720390720391,25.03980463980464,0.57763671875,2.115234375,-0.0234375,59.112548828125,-1.57928466796875,-1.48773193359375,-37.18485958485958,6.147496947496947,-30.437606837606836
56:07.053,-1.990234375,-0.4375,-0.28076171875,7.0953369140625,5.7220458984375,1.739501953125,-13.944322344322345,31.787057387057384,-15.293772893772893,0.45166015625,1.94091796875,0.3984375,-6.103515625,-52.22320556640625,-16.0369873046875,-22.04102564102564,-103.6078144078144,3.598534798534798,0.79248046875,1.82861328125,-0.3369140625,16.09039306640625,-35.247802734375,-56.95343017578125,-46.78095238095238,43.93211233211233,-27.88864468864469
56:07.931,-1.9404296875,-0.1767578125,-0.04541015625,50.72784423828125,7.17926025390625,-5.035400390625,-13.944322344322345,31.787057387057384,-15.293772893772893,0.45166015625,1.94091796875,0.3984375,-9.09423828125,5.66864013671875,7.34710693359375,-25.93943833943834,-97.01050061050061,-7.646886446886446,0.79248046875,1.82861328125,-0.3369140625,50.43792724609375,5.04302978515625,-16.16668701171875,-42.13284493284493,56.97680097680097,1.1995115995115995
56:08.760,-1.90625,-0.3671875,-0.33056640625,-16.02935791015625,-5.43975830078125,0.26702880859375,-12.894749694749695,32.08693528693529,-35.38559218559219,0.07177734375,1.97412109375,0.392578125,-9.09423828125,5.66864013671875,7.34710693359375,-25.93943833943834,-97.01050061050061,-7.646886446886446,1.3271484375,1.5576171875,-0.15478515625,50.43792724609375,5.04302978515625,-16.16668701171875,-42.13284493284493,56.97680097680097,1.1995115995115995
56:09.588,-2.65869140625,-0.06787109375,-0.11962890625,11.14654541015625,26.2603759765625,-9.5062255859375,-5.397802197802197,32.686691086691084,-37.18485958485958,0.20068359375,2.5927734375,0.51904296875,-47.15728759765625,-42.88482666015625,-10.84136962890625,-30.437606837606836,-90.26324786324786,-9.895970695970696,0.42626953125,2.1533203125,-0.8818359375,4.150390625,-95.5047607421875,-78.521728515625,-64.62368742368741,9.296214896214895,22.94065934065934
56:10.417,-1.71484375,-0.29345703125,-0.13134765625,-20.233154296875,-10.2081298828125,-7.85064697265625,8.096703296703296,34.78583638583638,-30.437606837606836,0.15576171875,2.076171875,0.38671875,3.7994384765625,18.18084716796875,5.31768798828125,-31.037362637362637,-85.61514041514042,-1.9492063492063492,1.123046875,1.7353515625,-0.1474609375,4.03594970703125,-15.7623291015625,-29.97589111328125,-56.676923076923075,25.639560439560437,23.24053724053724
56:11.295,-1.75244140625,-0.28759765625,-0.6826171875,0.03814697265625,26.3824462890625,-15.1214599609375,9.446153846153846,37.634676434676436,-27.288888888888888,-0.00537109375,1.91796875,0.06103515625,16.34979248046875,-6.6070556640625,-3.8909912109375,-31.337240537240536,-84.56556776556776,-1.3494505494505493,0.58349609375,2.26904296875,-0.05615234375,-41.4886474609375,95.28350830078125,123.87847900390625,-66.57289377289376,29.088156288156288,24.14017094017094
56:12.123,-1.75244140625,-0.28759765625,-0.6826171875,0.03814697265625,26.3824462890625,-15.1214599609375,13.794383394383393,36.73504273504273,-28.93821733821734,0.23291015625,2.298828125,0.28369140625,0.8697509765625,-11.8255615234375,6.91986083984375,-37.33479853479853,-83.96581196581197,-2.249084249084249,1.1708984375,1.68505859375,-0.3349609375,-0.701904296875,-15.61737060546875,-11.22283935546875,-65.37338217338217,37.18485958485958,19.791941391941393
56:13.001,-2.1083984375,-0.28173828125,0.07666015625,-2.105712890625,9.6893310546875,13.3209228515625,13.794383394383393,36.73504273504273,-28.93821733821734,0.140625,2.1689453125,0.27978515625,2.83050537109375,39.48211669921875,15.28167724609375,-43.93211233211233,-89.21367521367522,-7.496947496947497,0.6416015625,2.16943359375,-0.75439453125,-61.95068359375,170.1507568359375,69.183349609375,-87.56434676434677,29.388034188034187,-1.3494505494505493
56:13.829,-1.8818359375,-0.37451171875,-0.50927734375,-58.32672119140625,-20.1416015625,1.800537109375,12.294993894993894,43.78217338217338,-19.19218559218559,0.140625,2.1689453125,0.27978515625,2.83050537109375,39.48211669921875,15.28167724609375,-51.129181929181925,-89.51355311355312,1.0495726495726496,0.6416015625,2.16943359375,-0.75439453125,-61.95068359375,170.1507568359375,69.183349609375,-75.41929181929181,51.72893772893773,-5.997557997557998
56:14.805,-2.09521484375,-0.4150390625,-0.216796875,-62.19482421875,-10.21575927734375,-7.75909423828125,19.19218559218559,49.92967032967033,-7.047130647130647,0.35009765625,2.04345703125,0.306640625,-7.720947265625,65.77301025390625,8.3160400390625,-52.32869352869353,-94.46153846153845,4.947985347985348,0.88037109375,1.81982421875,-0.44873046875,24.74212646484375,127.7923583984375,-16.29638671875,-85.91501831501832,12.894749694749695,-59.07594627594627
56:15.731,-1.86328125,-0.45263671875,-0.38916015625,-54.83245849609375,-8.65936279296875,-4.43267822265625,14.094261294261294,52.32869352869353,-8.246642246642246,0.1044921875,1.9931640625,0.26220703125,9.33074951171875,52.8106689453125,10.00213623046875,-52.32869352869353,-94.46153846153845,4.947985347985348,0.91552734375,1.71826171875,-0.35107421875,24.74212646484375,127.7923583984375,-16.29638671875,-85.91501831501832,12.894749694749695,-59.07594627594627
56:16.608,-1.6767578125,-0.537109375,-0.28759765625,-19.7601318359375,-18.83697509765625,-4.08172607421875,8.396581196581197,49.77973137973138,-4.1982905982905985,0.0966796875,1.8994140625,0.27587890625,0.40435791015625,28.3355712890625,21.15631103515625,-49.179975579975576,-99.25958485958486,5.697680097680098,1.15380859375,1.73583984375,-0.2412109375,8.49151611328125,-7.110595703125,-27.0233154296875,-94.31159951159951,6.447374847374848,-60.125518925518925
56:17.437,-1.982421875,-0.3388671875,-0.4462890625,7.91168212890625,2.44140625,3.48663330078125,13.344566544566543,44.08205128205128,10.495726495726496,0.3095703125,2.1044921875,0.26708984375,-13.90838623046875,-10.91766357421875,1.0528564453125,-41.38315018315018,-101.95848595848595,18.142612942612942,0.7822265625,1.29345703125,-0.17578125,17.23480224609375,29.89959716796875,-44.82269287109375,-48.58021978021978,-28.188522588522588,-10.345787545787545
56:18.363,-1.6123046875,-0.2919921875,-0.36669921875,13.43536376953125,-14.404296875,-12.20703125,14.094261294261294,41.23321123321123,13.494505494505495,0.27587890625,1.68896484375,0.17138671875,-13.9923095703125,5.4779052734375,-4.66156005859375,-33.43638583638584,-100.6090354090354,23.09059829059829,1.0712890625,1.74267578125,-0.3203125,-5.28717041015625,-18.9666748046875,-11.40594482421875,-77.21855921855922,-3.7484737484737485,-34.93577533577533
56:19.192,-1.6123046875,-0.2919921875,-0.36669921875,3.30352783203125,10.47515869140625,2.15911865234375,17.692796092796094,34.635897435897434,17.842735042735043,0.11962890625,2.095703125,0.24658203125,6.0882568359375,-7.7667236328125,-7.72857666015625,-27.288888888888888,-100.15921855921856,34.036141636141636,1.05908203125,2.80908203125,-0.42431640625,-54.80194091796875,115.4632568359375,175.7659912109375,-35.23565323565323,-12.894749694749695,1.1995115995115995
56:20.216,-1.76220703125,-0.373046875,-0.59521484375,11.72637939453125,12.13836669921875,5.9356689453125,10.495726495726496,34.485958485958484,12.894749694749695,0.39208984375,1.91552734375,0.18359375,2.5177001953125,-13.29803466796875,4.79888916015625,-25.18974358974359,-98.95970695970695,27.88864468864469,0.97021484375,1.80908203125,-0.40380859375,2.06756591796875,-18.7225341796875,-33.51593017578125,-20.99145299145299,-6.297435897435897,20.24175824175824
56:21.044,-1.810546875,-0.29150390625,-0.26904296875,11.72637939453125,12.13836669921875,5.9356689453125,10.495726495726496,34.485958485958484,12.894749694749695,0.15966796875,2.01220703125,0.22802734375,-4.55474853515625,13.6871337890625,4.913330078125,-25.33968253968254,-99.1096459096459,33.73626373626374,0.53076171875,1.86376953125,-0.2783203125,4.9285888671875,-22.979736328125,-6.561279296875,-27.288888888888888,5.547741147741148,15.743589743589743
56:21.873,-1.85400390625,-0.3779296875,-0.32080078125,-9.43756103515625,2.105712890625,-2.54058837890625,16.793162393162394,34.78583638583638,16.64322344322344,0.15966796875,2.01220703125,0.22802734375,-4.55474853515625,13.6871337890625,4.913330078125,-23.84029304029304,-97.01050061050061,31.037362637362637,0.53076171875,1.86376953125,-0.2783203125,-21.7132568359375,-23.58245849609375,-48.6297607421875,-26.539194139194137,-37.48473748473749,-8.696459096459096
56:22.799,-1.80322265625,-0.48046875,-0.021484375,50.384521484375,17.14324951171875,4.79888916015625,14.394139194139193,35.53553113553114,13.494505494505495,0.33203125,1.935546875,0.4384765625,-6.53839111328125,-54.28314208984375,-11.8408203125,-20.54163614163614,-100.3091575091575,37.634676434676436,1.1064453125,1.87548828125,-0.23291015625,-21.7132568359375,-23.58245849609375,-48.6297607421875,-43.18241758241758,-17.242979242979242,-8.996336996336996
56:23.677,-1.34375,-1.4111328125,-0.32470703125,28.72467041015625,29.47235107421875,2.63214111328125,12.594871794871795,31.637118437118435,18.742368742368743,0.11083984375,2.04833984375,0.22998046875,-14.07623291015625,-44.22760009765625,-9.81903076171875,-20.54163614163614,-100.3091575091575,37.634676434676436,1.3154296875,1.87060546875,-0.21337890625,7.568359375,-43.121337890625,0.4119873046875,-43.18241758241758,-17.242979242979242,-8.996336996336996
56:24.506,-1.5439453125,-1.10205078125,-0.07958984375,53.96270751953125,59.60845947265625,11.3983154296875,12.294993894993894,33.73626373626374,-3.1487179487179486,0.48486328125,1.94482421875,0.369140625,-9.2010498046875,-84.4268798828125,-15.411376953125,-22.64078144078144,-100.75897435897436,10.645665445665445,0.96337890625,1.78271484375,-0.51513671875,-7.49969482421875,-41.839599609375,-20.13397216796875,-59.07594627594627,32.386813186813185,-40.78339438339438
56:25.335,-2.041015625,-0.208984375,0.00146484375,87.42523193359375,41.1224365234375,24.49798583984375,14.394139194139193,36.285225885225884,-14.694017094017093,0.05810546875,2.0146484375,0.21044921875,-15.56396484375,-38.67340087890625,-6.5460205078125,-25.93943833943834,-102.85811965811965,-2.399023199023199,0.53466796875,2.63330078125,1.71923828125,45.92132568359375,-2.9754638671875,-71.0906982421875,-57.27667887667887,41.38315018315018,-36.135286935286935
56:26.163,-2.041015625,-0.208984375,0.00146484375,87.42523193359375,41.1224365234375,24.49798583984375,-5.547741147741148,33.58632478632479,-30.587545787545785,0.40771484375,1.97314453125,0.41015625,-0.1373291015625,-29.998779296875,-12.47406005859375,-31.037362637362637,-82.76630036630036,-12.594871794871795,0.95556640625,2.068359375,-0.220703125,-6.8817138671875,-10.61248779296875,-49.3011474609375,-76.76874236874237,18.142612942612942,29.388034188034187
56:27.041,-1.87841796875,0.04736328125,0.35498046875,14.1448974609375,25.58135986328125,-13.93890380859375,-5.547741147741148,33.58632478632479,-30.587545787545785,0.10693359375,1.95263671875,0.33056640625,-8.99505615234375,20.5078125,11.3983154296875,-32.836630036630034,-84.56556776556776,-5.847619047619047,3.98388671875,1.20849609375,3.5234375,-5.706787109375,-77.75115966796875,-37.31536865234375,-78.41807081807082,25.639560439560437,13.494505494505495
56:27.869,-1.8193359375,-0.42724609375,-0.10791015625,3.50189208984375,-36.1785888671875,-2.0599365234375,-3.598534798534798,39.433943833943836,-28.338461538461537,0.10693359375,1.95263671875,0.33056640625,-4.3792724609375,-0.30517578125,-6.58416748046875,-32.08693528693529,-80.96703296703296,-6.897191697191697,3.98388671875,1.20849609375,3.5234375,-8.7432861328125,-44.86083984375,-76.34735107421875,-52.32869352869353,27.13894993894994,40.48351648351648
56:28.747,-1.87744140625,-0.27880859375,0.1796875,8.67462158203125,22.75848388671875,-11.383056640625,7.646886446886446,34.186080586080585,-30.437606837606836,0.43408203125,1.83056640625,0.33837890625,-4.3792724609375,-0.30517578125,-6.58416748046875,-32.08693528693529,-80.96703296703296,-6.897191697191697,0.91845703125,2.01318359375,-0.2060546875,-8.7432861328125,-44.86083984375,-76.34735107421875,-52.32869352869353,27.13894993894994,40.48351648351648
56:29.673,-1.904296875,-0.52294921875,-0.12548828125,-28.49578857421875,-0.19073486328125,-2.4261474609375,8.096703296703296,38.084493284493284,-23.24053724053724,0.1083984375,2.0068359375,0.38671875,0.23651123046875,30.6396484375,9.26971435546875,-34.78583638583638,-84.4156288156288,-2.848840048840049,1.2548828125,1.6943359375,0.02587890625,43.64776611328125,0.61798095703125,-31.646728515625,-51.72893772893773,38.234432234432234,39.733821733821735
56:30.552,-2.20849609375,-0.0810546875,-0.06005859375,17.0745849609375,-9.6282958984375,-11.016845703125,7.047130647130647,38.38437118437118,-22.94065934065934,0.29736328125,2.28173828125,0.55419921875,-35.72845458984375,-35.37750244140625,-14.1143798828125,-37.03492063492063,-82.16654456654456,-5.997557997557998,0.27099609375,1.95654296875,-0.6484375,7.568359375,-90.81268310546875,-69.915771484375,-87.71428571428571,24.14017094017094,-3.8984126984126983
56:31.477,-2.1748046875,-0.111328125,0.18115234375,-75.17242431640625,-0.78582763671875,-7.75909423828125,8.546520146520146,48.88009768009768,-15.593650793650793,0.35107421875,2.04296875,0.41357421875,3.5858154296875,70.6329345703125,11.4593505859375,-46.78095238095238,-88.46398046398046,-0.4498168498168498,1.02099609375,1.83349609375,-0.1845703125,-6.06536865234375,-12.0086669921875,36.81182861328125,-72.57045177045177,48.43028083028083,13.944322344322345
56:32.403,-1.9404296875,0.0087890625,0.2431640625,-9.3994140625,-4.1046142578125,-11.1083984375,10.045909645909646,55.62735042735043,0.4498168498168498,0.55224609375,1.91455078125,0.2451171875,-13.61846923828125,13.92364501953125,-3.15093994140625,-51.429059829059824,-96.56068376068376,4.798046398046398,1.07373046875,1.8935546875,0.17724609375,-17.9901123046875,19.44732666015625,-17.82989501953125,-101.05885225885226,14.694017094017093,-47.230769230769226
56:33.232,-1.9404296875,0.0087890625,0.2431640625,-65.07110595703125,-5.0048828125,5.91278076171875,4.1982905982905985,52.628571428571426,0.5997557997557997,0.0498046875,2.08203125,0.30517578125,12.542724609375,66.497802734375,19.744873046875,-50.52942612942613,-98.21001221001221,8.846398046398047,0.69091796875,2.29443359375,-0.0673828125,63.29345703125,31.99005126953125,-54.08477783203125,-105.25714285714285,12.444932844932845,-45.28156288156288
56:34.207,-1.8974609375,-0.29248046875,-0.17919921875,11.68060302734375,-3.70025634765625,-23.74267578125,4.348229548229548,45.73137973137973,4.1982905982905985,0.22509765625,2.09033203125,0.2529296875,-18.65386962890625,-5.5694580078125,-11.86370849609375,-43.18241758241758,-100.9089133089133,11.245421245421245,0.46484375,1.32958984375,0.0048828125,0.6866455078125,-25.1312255859375,-33.76007080078125,-43.18241758241758,-27.438827838827837,5.697680097680098
56:35.036,-2.01904296875,-0.1357421875,0.08447265625,11.68060302734375,-3.70025634765625,-23.74267578125,4.348229548229548,45.73137973137973,4.1982905982905985,0.27783203125,1.9970703125,0.1806640625,-6.8511962890625,15.14434814453125,8.1634521484375,-31.637118437118435,-100.6090354090354,25.93943833943834,1.1162109375,1.70654296875,-0.26220703125,-0.69427490234375,-17.64678955078125,12.00103759765625,-70.77118437118438,-2.249084249084249,-30.137728937728937
56:35.914,-1.884765625,-0.11279296875,-0.23291015625,-7.7362060546875,-7.72857666015625,6.23321533203125,11.245421245421245,40.93333333333333,18.742368742368743,0.13427734375,2.16552734375,0.0283203125,-8.4075927734375,6.8206787109375,5.34820556640625,-27.738705738705736,-99.55946275946276,32.836630036630034,0.7724609375,1.759765625,0.0927734375,-15.73944091796875,79.09393310546875,49.285888671875,-38.68424908424908,-18.892307692307693,5.547741147741148
56:36.888,-1.88134765625,0.00341796875,-0.49951171875,-11.84844970703125,-13.69476318359375,-4.92095947265625,16.64322344322344,35.68547008547009,16.49328449328449,0.13427734375,2.16552734375,0.0283203125,-8.4075927734375,6.8206787109375,5.34820556640625,-28.188522588522588,-101.50866910866911,24.29010989010989,0.7724609375,1.759765625,0.0927734375,-15.73944091796875,79.09393310546875,49.285888671875,-46.18119658119658,-7.646886446886446,-16.793162393162394
56:37.717,-1.7109375,-0.0263671875,-0.36474609375,7.02667236328125,-30.6396484375,-3.814697265625,8.096703296703296,35.23565323565323,8.396581196581197,0.28955078125,1.77392578125,-0.078125,-7.22503662109375,7.13348388671875,4.93621826171875,-28.188522588522588,-101.50866910866911,24.29010989010989,1.076171875,1.734375,-0.31298828125,-0.11444091796875,-17.49420166015625,-15.472412109375,-46.18119658119658,-7.646886446886446,-16.793162393162394
56:38.594,-1.58642578125,-0.15185546875,-0.08154296875,7.110595703125,-1.2359619140625,6.64520263671875,13.194627594627594,34.93577533577533,16.49328449328449,-0.08154296875,1.90869140625,0.20703125,4.87518310546875,-8.72039794921875,8.9111328125,-25.78949938949939,-98.65982905982905,33.73626373626374,0.365234375,2.89892578125,-0.9560546875,-102.89764404296875,21.67510986328125,202.911376953125,-25.93943833943834,5.847619047619047,15.443711843711844
56:39.423,-2.47900390625,0.6474609375,0.392578125,113.067626953125,-42.6177978515625,85.67047119140625,13.044688644688645,34.78583638583638,15.593650793650793,0.33154296875,1.94482421875,0.4833984375,-3.2501220703125,-56.49566650390625,-17.3492431640625,-24.44004884004884,-99.25958485958486,35.53553113553114,1.01806640625,1.82080078125,-0.3603515625,-33.33282470703125,-32.745361328125,-29.1595458984375,-33.73626373626374,-29.987789987789988,6.747252747252747
56:40.398,-1.8212890625,0.5986328125,0.01611328125,42.5262451171875,-35.63690185546875,-15.625,0.7496947496947497,23.24053724053724,23.24053724053724,0.01171875,2.01904296875,0.18212890625,-12.18414306640625,-31.646728515625,5.462646484375,-18.742368742368743,-101.80854700854701,42.28278388278388,1.91650390625,1.314453125,1.43408203125,6.2713623046875,-36.32354736328125,8.9569091796875,-26.98901098901099,-16.193406593406593,-3.4485958485958483
56:41.227,-1.8212890625,0.5986328125,0.01611328125,65.83404541015625,7.88116455078125,-30.15899658203125,-24.44004884004884,21.59120879120879,-14.094261294261294,0.39111328125,1.97021484375,0.50390625,-14.1754150390625,-91.6290283203125,-11.55853271484375,-23.24053724053724,-104.2075702075702,13.344566544566543,1.0810546875,1.7373046875,-0.4638671875,-16.44134521484375,-43.3807373046875,-3.814697265625,-43.93211233211233,40.63345543345543,-32.08693528693529
56:42.056,-1.67431640625,0.7197265625,0.68408203125,65.83404541015625,7.88116455078125,-30.15899658203125,-30.287667887667887,24.29010989010989,-26.83907203907204,0.09814453125,1.96484375,0.18359375,-8.819580078125,-36.76605224609375,-7.31658935546875,-25.93943833943834,-102.55824175824175,2.848840048840049,0.32275390625,2.375,-1.11669921875,-100.6927490234375,5.30242919921875,120.9564208984375,-44.68180708180708,53.67814407814408,-12.444932844932845
56:42.934,-2.03857421875,-0.38525390625,-0.12158203125,34.29412841796875,25.69580078125,5.31005859375,-30.287667887667887,24.29010989010989,-26.83907203907204,0.09814453125,1.96484375,0.18359375,-4.17327880859375,-19.50836181640625,-1.02996826171875,-32.08693528693529,-88.3140415140415,-8.696459096459096,0.32275390625,2.375,-1.11669921875,4.3182373046875,-17.1051025390625,-36.35406494140625,-78.41807081807082,12.594871794871795,18.44249084249084
56:43.811,-1.9833984375,-0.13671875,0.11962890625,16.01409912109375,5.18035888671875,-1.9073486328125,-2.548962148962149,35.835409035409036,-32.836630036630034,0.46484375,2.015625,0.40283203125,-4.17327880859375,-19.50836181640625,-1.02996826171875,-31.787057387057384,-88.91379731379732,-6.297435897435897,0.97265625,1.78662109375,-0.4033203125,4.3182373046875,-17.1051025390625,-36.35406494140625,-75.86910866910867,17.242979242979242,10.045909645909646
56:44.639,-1.82080078125,-0.19384765625,-0.2421875,-0.4730224609375,-11.566162109375,-0.46539306640625,-2.249084249084249,35.835409035409036,-30.737484737484735,0.1142578125,1.9501953125,0.27392578125,-4.90570068359375,0.70953369140625,2.02178955078125,-31.787057387057384,-88.91379731379732,-6.297435897435897,1.7880859375,1.9853515625,0.7626953125,74.36370849609375,81.61163330078125,-46.5240478515625,-75.86910866910867,17.242979242979242,10.045909645909646
56:45.566,-1.82421875,0.12548828125,-0.35009765625,0.14495849609375,-1.62506103515625,-5.72967529296875,6.297435897435897,36.285225885225884,-33.43638583638584,0.31298828125,1.92724609375,0.1611328125,0.86212158203125,-2.02178955078125,-2.51007080078125,-33.73626373626374,-83.36605616605617,-5.397802197802197,0.66455078125,1.845703125,0.01953125,22.11761474609375,7.659912109375,-57.67059326171875,-70.02148962148962,28.188522588522588,32.08693528693529
56:46.395,-1.72216796875,0.06689453125,-0.21240234375,1.4801025390625,-22.31597900390625,-8.93402099609375,5.097924297924298,38.234432234432234,-32.98656898656898,0.3271484375,1.80908203125,0.0703125,-11.0931396484375,12.96234130859375,2.09808349609375,-37.18485958485958,-86.06495726495726,-4.798046398046398,1.078125,1.74755859375,-0.2275390625,6.47735595703125,-11.74163818359375,-11.0626220703125,-62.37460317460317,41.38315018315018,30.437606837606836
56:47.223,-1.72216796875,0.06689453125,-0.21240234375,-7.24029541015625,19.4549560546875,2.0599365234375,1.799267399267399,40.033699633699634,-32.236874236874236,0.15380859375,2.12451171875,-0.02880859375,2.655029296875,-5.30242919921875,-15.55633544921875,-38.38437118437118,-89.96336996336996,-6.447374847374848,1.16064453125,2.48291015625,-0.43017578125,-79.35333251953125,123.9166259765625,142.059326171875,-70.02148962148962,26.689133089133087,12.444932844932845
56:48.101,-2.15380859375,-0.02197265625,-0.76513671875,-7.24029541015625,19.4549560546875,2.0599365234375,9.446153846153846,45.58144078144078,-26.98901098901099,0.54443359375,1.7763671875,0.16796875,-4.8675537109375,52.02484130859375,16.29638671875,-44.08205128205128,-87.11452991452991,-4.798046398046398,0.8515625,1.7646484375,-0.4208984375,-3.41796875,26.39007568359375,7.26318359375,-71.52087912087912,41.533089133089135,18.742368742368743
56:48.978,-1.8662109375,0.060546875,-0.3017578125,-50.60577392578125,-32.5469970703125,-2.6397705078125,9.446153846153846,45.58144078144078,-26.98901098901099,0.54443359375,1.7763671875,0.16796875,7.51495361328125,75.5157470703125,-4.669189453125,-51.72893772893773,-97.01050061050061,4.947985347985348,0.8515625,1.7646484375,-0.4208984375,1.53350830078125,149.90997314453125,53.5736083984375,-92.2124542124542,29.83785103785104,-50.829304029304026
56:49.807,-1.876953125,-0.064453125,-0.61669921875,-72.8912353515625,4.93621826171875,-21.3775634765625,4.798046398046398,53.37826617826617,-14.094261294261294,0.12255859375,2.0322265625,0.19873046875,7.51495361328125,75.5157470703125,-4.669189453125,-46.93089133089133,-98.95970695970695,3.2986568986568985,1.046875,1.89697265625,-0.41748046875,9.10186767578125,16.09039306640625,-33.98895263671875,-95.5111111111111,-4.648107448107448,-63.12429792429792
56:50.733,-1.8212890625,0.05615234375,-0.6376953125,-42.64068603515625,23.1781005859375,-6.67572021484375,-3.4485958485958483,48.58021978021978,-15.893528693528692,0.4228515625,2.15869140625,0.19482421875,-9.48333740234375,22.491455078125,8.8043212890625,-46.93089133089133,-98.95970695970695,3.2986568986568985,0.9423828125,1.8154296875,-0.115234375,9.10186767578125,16.09039306640625,-33.98895263671875,-95.5111111111111,-4.648107448107448,-63.12429792429792
56:51.562,-1.96484375,-0.13916015625,-0.23095703125,-15.25115966796875,-9.21630859375,5.89752197265625,7.796825396825397,43.93211233211233,8.996336996336996,0.01806640625,1.9677734375,0.24365234375,-0.86212158203125,16.632080078125,9.11712646484375,-36.135286935286935,-101.80854700854701,22.94065934065934,3.818359375,1.30419921875,1.33642578125,-12.53509521484375,-104.2633056640625,-34.70611572265625,-58.326251526251525,-28.488400488400487,-6.597313797313797
56:52.391,-2.0,0.0439453125,-0.0205078125,24.29962158203125,8.73565673828125,6.88934326171875,8.696459096459096,37.33479853479853,8.096703296703296,0.5048828125,1.95263671875,0.24267578125,0.67138671875,-26.98516845703125,-2.38800048828125,-29.987789987789988,-98.95970695970695,23.99023199023199,0.876953125,2.15234375,-0.27685546875,1.5716552734375,-19.34814453125,-48.1414794921875,-33.58632478632479,-19.19218559218559,9.746031746031745
56:53.317,-1.92529296875,-0.30224609375,-0.31689453125,-47.8668212890625,0.762939453125,-1.88446044921875,4.648107448107448,38.234432234432234,10.645665445665445,0.02490234375,1.9384765625,0.4228515625,6.93511962890625,39.71099853515625,11.9781494140625,-27.288888888888888,-102.7081807081807,26.98901098901099,1.28076171875,1.51416015625,-0.16552734375,51.8035888671875,-11.84844970703125,-38.909912109375,-46.03125763125763,-11.545299145299145,-17.692796092796094
56:54.195,-1.92529296875,-0.30224609375,-0.31689453125,29.24346923828125,-1.2359619140625,1.800537109375,17.093040293040293,36.135286935286935,10.945543345543346,0.58154296875,1.99169921875,0.4873046875,-9.20867919921875,-30.69305419921875,-13.4124755859375,-25.18974358974359,-99.25958485958486,33.13650793650793,0.83740234375,2.513671875,-0.88330078125,55.7861328125,-71.14410400390625,-95.39794921875,-45.88131868131868,-6.897191697191697,12.444932844932845
56:55.023,-2.205078125,-0.04052734375,-0.1220703125,29.24346923828125,-1.2359619140625,1.800537109375,17.093040293040293,36.135286935286935,10.945543345543346,-0.0185546875,1.75927734375,0.2001953125,-8.70513916015625,14.09149169921875,9.07135009765625,-21.44126984126984,-99.1096459096459,43.482295482295484,1.1689453125,1.693359375,-0.2373046875,-7.1868896484375,-29.16717529296875,-8.1939697265625,-68.82197802197803,6.597313797313797,-22.94065934065934
56:55.852,-1.59814453125,-0.3466796875,-0.080078125,4.18853759765625,-19.82879638671875,-15.37322998046875,18.892307692307693,32.98656898656898,20.99145299145299,-0.0185546875,1.75927734375,0.2001953125,-8.70513916015625,14.09149169921875,9.07135009765625,-16.793162393162394,-99.4095238095238,43.18241758241758,1.1689453125,1.693359375,-0.2373046875,-7.1868896484375,-29.16717529296875,-8.1939697265625,-16.793162393162394,-5.697680097680098,-8.996336996336996
56:56.681,-1.7265625,-0.02734375,-0.48681640625,64.4378662109375,10.96343994140625,6.04248046875,13.494505494505495,30.437606837606836,16.043467643467643,0.3701171875,1.75390625,0.2138671875,4.2877197265625,-61.21063232421875,-21.82769775390625,-16.793162393162394,-99.4095238095238,43.18241758241758,0.51953125,2.08740234375,0.09765625,6.66046142578125,54.35943603515625,-30.8837890625,-16.793162393162394,-5.697680097680098,-8.996336996336996
56:57.510,-2.0908203125,-0.0029296875,-0.48291015625,50.43792724609375,3.21197509765625,11.54327392578125,-14.843956043956043,32.98656898656898,-14.694017094017093,0.40966796875,2.12158203125,0.2607421875,-20.92742919921875,-52.4749755859375,-13.72528076171875,-24.29010989010989,-104.95726495726495,10.795604395604395,0.92822265625,1.82177734375,-0.384765625,2.6397705078125,-22.5067138671875,-1.07574462890625,-53.67814407814408,21.14139194139194,-41.832967032967034
56:58.339,-2.01025390625,-0.1513671875,-0.97705078125,35.78948974609375,11.6424560546875,16.05987548828125,-15.743589743589743,29.687912087912085,-30.287667887667887,0.3232421875,2.12353515625,0.0654296875,-0.9307861328125,-32.6080322265625,-16.62445068359375,-24.739926739926737,-100.9089133089133,1.0495726495726496,0.6845703125,2.5791015625,0.03076171875,-78.43780517578125,69.732666015625,182.9986572265625,-46.18119658119658,49.179975579975576,-16.793162393162394
56:59.167,-2.01025390625,-0.1513671875,-0.97705078125,35.78948974609375,11.6424560546875,16.05987548828125,0.5997557997557997,27.738705738705736,-43.63223443223443,0.3935546875,1.873046875,0.25732421875,4.60052490234375,-17.852783203125,-2.79998779296875,-30.437606837606836,-89.21367521367522,-6.447374847374848,1.04833984375,1.77490234375,-0.39599609375,2.79998779296875,-23.468017578125,-29.09088134765625,-75.71916971916971,33.43638583638584,2.848840048840049
56:59.996,-1.76123046875,-0.32177734375,-0.2021484375,12.8173828125,-21.01898193359375,4.99725341796875,0.5997557997557997,27.738705738705736,-43.63223443223443,0.18896484375,1.953125,0.3779296875,-2.12860107421875,8.99505615234375,4.64630126953125,-32.236874236874236,-90.56312576312575,-8.546520146520146,1.05712890625,2.59130859375,0.634765625,85.86883544921875,41.52679443359375,3.47137451171875,-60.125518925518925,14.993894993894994,18.892307692307693
57:00.873,-1.93310546875,-0.24072265625,-0.3408203125,-14.33563232421875,-8.0718994140625,7.6751708984375,0.7496947496947497,35.68547008547009,-35.08571428571428,0.18896484375,1.953125,0.3779296875,-2.12860107421875,8.99505615234375,4.64630126953125,-31.637118437118435,-83.36605616605617,1.3494505494505493,1.05712890625,2.59130859375,0.634765625,85.86883544921875,41.52679443359375,3.47137451171875,-67.02271062271062,22.94065934065934,38.53431013431013
57:01.702,-1.95263671875,-0.21435546875,-0.20166015625,22.430419921875,-9.246826171875,-4.364013671875,12.444932844932845,31.487179487179485,-30.587545787545785,0.40185546875,1.90185546875,0.31982421875,-7.415771484375,-16.83807373046875,-9.94873046875,-31.637118437118435,-83.36605616605617,1.3494505494505493,1.134765625,2.1005859375,-0.267578125,11.5509033203125,-53.0242919921875,-91.5374755859375,-67.02271062271062,22.94065934065934,38.53431013431013
57:02.580,-2.0986328125,-0.39599609375,-0.34423828125,-44.036865234375,4.0435791015625,-12.79449462890625,8.546520146520146,35.68547008547009,-31.936996336996337,0.1591796875,2.10498046875,0.46826171875,-16.94488525390625,35.33935546875,5.79071044921875,-36.135286935286935,-85.01538461538462,-0.8996336996336995,1.072265625,1.87353515625,-0.2197265625,22.0794677734375,-4.46319580078125,2.46429443359375,-60.275457875457874,35.38559218559219,35.23565323565323
57:03.409,-1.8251953125,-0.2734375,-0.51513671875,-30.5328369140625,-8.941650390625,-1.220703125,3.4485958485958483,44.08205128205128,-28.03858363858364,0.1103515625,1.87646484375,0.11328125,6.866455078125,28.69415283203125,-0.9918212890625,-43.33235653235653,-87.56434676434677,-6.597313797313797,0.9892578125,1.58203125,-0.32568359375,-72.4639892578125,191.2841796875,37.7349853515625,-89.21367521367522,30.287667887667887,-7.796825396825397
57:04.237,-1.8251953125,-0.2734375,-0.51513671875,-33.3709716796875,-2.1209716796875,-5.37872314453125,11.695238095238095,49.62979242979243,-21.741147741147742,0.4892578125,2.01513671875,0.380859375,-2.593994140625,36.31591796875,12.42828369140625,-50.37948717948718,-91.01294261294261,-3.2986568986568985,1.0126953125,1.76806640625,-0.29541015625,-9.78851318359375,6.744384765625,-0.9918212890625,-72.42051282051281,46.03125763125763,-40.033699633699634
57:05.066,-1.84912109375,-0.2568359375,-0.29443359375,-33.3709716796875,-2.1209716796875,-5.37872314453125,11.695238095238095,49.62979242979243,-21.741147741147742,-0.00927734375,2.08447265625,0.2529296875,8.03375244140625,44.3572998046875,9.14764404296875,-49.77973137973138,-96.26080586080586,4.348229548229548,1.064453125,1.88671875,-0.30126953125,12.969970703125,141.7236328125,74.65362548828125,-83.21611721611721,8.396581196581197,-60.275457875457874
57:05.895,-1.8056640625,-0.41015625,-0.60693359375,-46.2493896484375,0.32806396484375,-1.79290771484375,7.496947496947497,50.37948717948718,-14.843956043956043,-0.00927734375,2.08447265625,0.2529296875,4.21905517578125,33.0963134765625,4.14276123046875,-44.83174603174603,-98.95970695970695,3.2986568986568985,1.064453125,1.88671875,-0.30126953125,-4.5928955078125,-4.7760009765625,-20.39337158203125,-79.46764346764347,-13.794383394383393,-55.17753357753357
57:06.821,-1.99609375,-0.15673828125,-0.34521484375,-37.6739501953125,-3.54766845703125,-11.36016845703125,2.548962148962149,47.83052503052503,-10.795604395604395,0.3466796875,2.0302734375,0.25146484375,4.21905517578125,33.0963134765625,4.14276123046875,-37.18485958485958,-97.76019536019535,14.094261294261294,1.0576171875,1.77197265625,-0.31787109375,-4.5928955078125,-4.7760009765625,-20.39337158203125,-56.526984126984125,-24.44004884004884,-24.29010989010989
57:07.698,-1.7724609375,-0.310546875,-0.505859375,-15.90728759765625,7.0648193359375,-8.2550048828125,10.195848595848595,41.98290598290598,-1.799267399267399,0.08203125,1.92822265625,0.18701171875,-8.81195068359375,9.60540771484375,0.31280517578125,-37.18485958485958,-97.76019536019535,14.094261294261294,0.732421875,2.4931640625,-0.2958984375,-63.97247314453125,70.220947265625,150.6805419921875,-56.526984126984125,-24.44004884004884,-24.29010989010989
57:08.576,-1.9287109375,-0.11376953125,-0.16552734375,25.42877197265625,9.23919677734375,10.8489990234375,8.096703296703296,39.433943833943836,5.397802197802197,0.38330078125,1.8876953125,0.23388671875,0.02288818359375,-23.53668212890625,-1.556396484375,-32.536752136752135,-100.75897435897436,21.89108669108669,0.97802734375,1.96728515625,-0.23779296875,-18.218994140625,-29.4342041015625,-54.66461181640625,-37.18485958485958,-18.59242979242979,6.147496947496947
57:09.405,-1.873046875,-0.462890625,-0.44384765625,-23.24676513671875,0.5340576171875,7.19451904296875,10.345787545787545,35.68547008547009,7.197069597069596,0.03076171875,1.9453125,0.3974609375,2.655029296875,19.561767578125,12.76397705078125,-24.739926739926737,-94.61147741147741,29.088156288156288,1.2861328125,1.658203125,-0.1025390625,41.20635986328125,1.220703125,-24.5513916015625,-41.38315018315018,-14.694017094017093,-7.197069597069596
57:10.283,-2.0517578125,-0.28759765625,-0.005859375,10.93292236328125,-3.41033935546875,-12.1002197265625,9.746031746031745,37.634676434676436,7.796825396825397,0.142578125,2.02490234375,0.47119140625,-3.448486328125,-14.8468017578125,-6.0882568359375,-25.33968253968254,-100.15921855921856,31.187301587301587,0.77294921875,0.986328125,0.01025390625,21.728515625,-22.8729248046875,-19.0582275390625,-23.690354090354088,5.847619047619047,17.842735042735043
57:11.208,-2.0517578125,-0.28759765625,-0.005859375,-1.4190673828125,-28.4271240234375,-3.91387939453125,16.64322344322344,32.536752136752135,16.043467643467643,0.20361328125,1.76025390625,0.154296875,-9.91058349609375,37.90283203125,8.24737548828125,-19.941880341880342,-91.76263736263736,36.88498168498168,1.0927734375,1.751953125,-0.3173828125,0.54931640625,-12.8021240234375,-7.17926025390625,-57.42661782661782,15.443711843711844,-13.344566544566543
57:12.086,-1.93798828125,-0.0947265625,-0.10595703125,-1.4190673828125,-28.4271240234375,-3.91387939453125,16.64322344322344,32.536752136752135,16.043467643467643,0.01806640625,2.08935546875,0.15771484375,-10.15472412109375,-73.30322265625,-17.3492431640625,-16.343345543345542,-97.61025641025641,47.08083028083028,0.39208984375,1.76220703125,-0.10888671875,4.913330078125,62.4542236328125,6.66046142578125,-17.992673992673993,-22.34090354090354,22.04102564102564
57:12.915,-1.93798828125,-0.19921875,-0.26806640625,65.521240234375,8.75091552734375,4.14276123046875,18.29255189255189,29.83785103785104,22.79072039072039,0.01806640625,2.08935546875,0.15771484375,-0.946044921875,-35.80474853515625,-5.2490234375,-21.29133089133089,-105.10720390720391,26.08937728937729,0.39208984375,1.76220703125,-0.10888671875,0.8544921875,-24.23095703125,10.5438232421875,-35.985347985347985,22.19096459096459,-31.637118437118435
57:13.743,-1.96923828125,-0.279296875,-0.1923828125,45.71533203125,10.7879638671875,9.1552734375,-4.348229548229548,30.587545787545785,6.447374847374848,0.38427734375,2.03857421875,0.46240234375,-0.946044921875,-35.80474853515625,-5.2490234375,-21.29133089133089,-105.10720390720391,26.08937728937729,0.9365234375,1.77294921875,-0.5,0.8544921875,-24.23095703125,10.5438232421875,-35.985347985347985,22.19096459096459,-31.637118437118435
57:14.572,-1.74072265625,-0.3896484375,-0.5146484375,38.5589599609375,15.7928466796875,3.11279296875,-9.895970695970696,31.337240537240536,-9.296214896214895,-0.12451171875,1.828125,0.068359375,1.3885498046875,-49.93438720703125,-18.5394287109375,-23.99023199023199,-103.9076923076923,15.743589743589743,0.40869140625,1.75,0.3076171875,-73.52447509765625,-17.5933837890625,98.36578369140625,-33.58632478632479,37.934554334554335,-29.088156288156288
57:15.401,-1.6552734375,-0.185546875,-0.3740234375,12.44354248046875,-13.19122314453125,-4.11224365234375,-5.847619047619047,33.88620268620269,-34.635897435897434,0.35986328125,1.77685546875,0.1826171875,-14.5721435546875,-3.936767578125,5.9661865234375,-30.137728937728937,-91.01294261294261,-8.846398046398047,1.20068359375,1.68408203125,-0.26025390625,-1.91497802734375,-17.333984375,-4.34112548828125,-51.72893772893773,52.47863247863248,12.444932844932845
57:16.327,-1.736328125,-0.26904296875,-0.50439453125,-18.768310546875,-7.537841796875,-1.09100341796875,0.29987789987789987,31.637118437118435,-37.18485958485958,0.26318359375,1.955078125,0.134765625,9.11712646484375,17.86041259765625,7.2479248046875,-32.686691086691084,-89.96336996336996,-5.997557997557998,0.01171875,2.23974609375,-0.74169921875,30.059814453125,-33.14208984375,-71.3653564453125,-76.91868131868132,15.443711843711844,8.996336996336996
57:17.156,-1.736328125,-0.26904296875,-0.50439453125,-18.768310546875,-7.537841796875,-1.09100341796875,9.596092796092796,31.037362637362637,-35.38559218559219,0.30712890625,2.1171875,0.22021484375,-3.22723388671875,7.4005126953125,-10.15472412109375,-34.036141636141636,-83.66593406593407,-4.348229548229548,1.0107421875,1.7265625,-0.333984375,1.800537109375,-5.19561767578125,4.9285888671875,-61.02515262515262,31.037362637362637,16.343345543345542
57:17.985,-1.982421875,-0.14404296875,-0.56201171875,5.16510009765625,-11.9781494140625,-4.17327880859375,9.596092796092796,31.037362637362637,-35.38559218559219,0.30712890625,2.1171875,0.22021484375,1.76239013671875,3.84521484375,5.83648681640625,-33.73626373626374,-88.76385836385836,-2.249084249084249,1.0107421875,1.7265625,-0.333984375,-17.82989501953125,90.08026123046875,73.90594482421875,-61.47496947496947,32.08693528693529,25.03980463980464
57:18.813,-1.8369140625,-0.3232421875,-0.7802734375,-5.18798828125,-4.364013671875,1.0833740234375,9.446153846153846,32.386813186813185,-35.835409035409036,0.14599609375,2.10693359375,0.15087890625,1.76239013671875,3.84521484375,5.83648681640625,-35.835409035409036,-85.91501831501832,0.0,0.71875,1.64697265625,-0.19677734375,-17.82989501953125,90.08026123046875,73.90594482421875,-60.57533577533577,39.583882783882785,29.088156288156288
57:19.642,-1.65576171875,-0.1591796875,-0.740234375,1.21307373046875,-14.68658447265625,-7.0037841796875,11.245421245421245,35.23565323565323,-35.53553113553114,0.3505859375,1.79345703125,0.1181640625,-2.86102294921875,3.509521484375,-0.8544921875,-35.835409035409036,-85.91501831501832,0.0,1.09423828125,1.75732421875,-0.33056640625,6.35528564453125,-17.2882080078125,-15.8233642578125,-60.57533577533577,39.583882783882785,29.088156288156288
57:20.471,-2.06689453125,0.04248046875,-0.92919921875,-2.54058837890625,7.568359375,7.54547119140625,4.1982905982905985,41.533089133089135,-33.13650793650793,0.419921875,2.24951171875,0.25439453125,-5.5999755859375,3.0975341796875,-5.1727294921875,-40.63345543345543,-88.76385836385836,-1.1995115995115995,0.8837890625,2.23779296875,-0.607421875,-83.6181640625,182.0220947265625,126.9683837890625,-84.7155067155067,29.088156288156288,0.4498168498168498
57:21.300,-1.9130859375,-0.1044921875,-0.4287109375,-60.05859375,-8.1634521484375,-26.336669921875,12.145054945054945,52.778510378510376,-22.34090354090354,0.5546875,1.94140625,0.1669921875,1.190185546875,63.4918212890625,9.8114013671875,-49.479853479853475,-90.86300366300365,-0.29987789987789987,1.0146484375,1.78662109375,-0.26708984375,-5.2490234375,8.53729248046875,-7.46917724609375,-82.31648351648352,47.68058608058608,8.246642246642246
57:22.128,-1.9130859375,-0.1044921875,-0.4287109375,-60.05859375,-8.1634521484375,-26.336669921875,10.345787545787545,54.877655677655675,-11.545299145299145,0.06787109375,2.06787109375,0.4208984375,9.75799560546875,55.35888671875,11.7340087890625,-54.727716727716725,-103.15799755799756,4.498168498168498,0.78271484375,1.88671875,-0.23681640625,12.01629638671875,195.3125,29.39605712890625,-82.16654456654456,21.14139194139194,-46.03125763125763
57:22.957,-1.85302734375,-0.52392578125,-0.58740234375,-55.2978515625,-5.706787109375,-13.3819580078125,10.345787545787545,54.877655677655675,-11.545299145299145,0.06787109375,2.06787109375,0.4208984375,0.87738037109375,48.0194091796875,10.2996826171875,-47.83052503052503,-100.15921855921856,5.847619047619047,0.78271484375,1.88671875,-0.23681640625,5.47027587890625,-4.4708251953125,-11.39068603515625,-86.96459096459097,3.598534798534798,-64.32380952380952
57:23.787,-2.091796875,-0.21630859375,-0.4033203125,-52.19268798828125,16.09039306640625,-1.373291015625,4.798046398046398,50.829304029304026,-12.744810744810744,0.40087890625,2.09716796875,0.40625,0.87738037109375,48.0194091796875,10.2996826171875,-40.78339438339438,-101.50866910866911,22.19096459096459,1.08251953125,1.7490234375,-0.36083984375,5.47027587890625,-4.4708251953125,-11.39068603515625,-65.52332112332113,-32.836630036630034,-20.09181929181929
57:24.663,-1.7021484375,-0.1787109375,-0.74658203125,-12.01629638671875,4.11224365234375,1.16729736328125,12.145054945054945,46.03125763125763,-0.5997557997557997,0.12841796875,1.9052734375,-0.02392578125,14.82391357421875,-1.47247314453125,-5.11932373046875,-40.78339438339438,-101.50866910866911,22.19096459096459,-0.1435546875,1.77783203125,-0.46044921875,51.8035888671875,92.39959716796875,-3.92913818359375,-65.52332112332113,-32.836630036630034,-20.09181929181929
57:25.541,-2.1806640625,-0.26904296875,-0.4814453125,3.01361083984375,8.697509765625,6.3323974609375,12.594871794871795,43.03247863247863,1.3494505494505493,0.31298828125,2.33642578125,0.40771484375,-17.120361328125,-8.85009765625,8.00323486328125,-37.33479853479853,-100.15921855921856,22.79072039072039,0.98974609375,1.80517578125,-0.4345703125,4.1046142578125,-10.74981689453125,-11.3067626953125,-73.62002442002442,-11.245421245421245,-27.288888888888888
57:26.565,-1.54296875,-0.333984375,-0.64208984375,35.37750244140625,6.40869140625,7.20977783203125,15.443711843711844,39.433943833943836,9.146275946275946,-0.021484375,1.86328125,0.1220703125,0.6256103515625,-45.34149169921875,-6.866455078125,-29.388034188034187,-98.65982905982905,30.137728937728937,0.69189453125,1.98388671875,0.0615234375,-92.07916259765625,31.42547607421875,166.7938232421875,-35.08571428571428,-11.995115995115995,14.244200244200243
57:27.442,-1.7822265625,-0.384765625,-0.5966796875,3.6468505859375,-6.256103515625,2.23541259765625,12.744810744810744,34.93577533577533,10.045909645909646,0.26708984375,1.921875,0.23583984375,1.7242431640625,-1.71661376953125,1.7547607421875,-24.88986568986569,-101.05885225885226,34.485958485958484,1.009765625,1.78564453125,-0.4384765625,5.157470703125,-18.37158203125,-30.64727783203125,-44.68180708180708,-5.997557997557998,-11.395360195360196
57:28.320,-1.84326171875,-0.34228515625,-0.55029296875,-17.0135498046875,-17.5933837890625,1.44195556640625,14.843956043956043,38.234432234432234,6.297435897435897,0.162109375,1.96142578125,0.27294921875,-0.52642822265625,12.4053955078125,10.25390625,-24.44004884004884,-100.0092796092796,34.186080586080585,0.29541015625,1.98046875,-0.83984375,40.29083251953125,-63.39263916015625,-40.27557373046875,-23.54041514041514,4.1982905982905985,18.142612942612942
57:29.246,-1.84326171875,-0.34228515625,-0.55029296875,64.75830078125,20.68328857421875,9.8419189453125,16.64322344322344,34.635897435897434,15.143833943833943,0.45703125,1.84716796875,0.4580078125,-7.91168212890625,-58.93707275390625,-16.44134521484375,-21.59120879120879,-99.55946275946276,33.43638583638584,1.1806640625,1.9052734375,-0.34033203125,-58.16650390625,-63.8427734375,-42.4346923828125,-21.14139194139194,-23.84029304029304,7.047130647130647
57:30.172,-1.8828125,-0.302734375,0.064453125,64.75830078125,20.68328857421875,9.8419189453125,13.194627594627594,30.737484737484735,19.791941391941393,-0.00146484375,1.96435546875,0.17431640625,-7.91168212890625,-29.33502197265625,4.180908203125,-18.892307692307693,-101.20879120879121,38.53431013431013,0.67236328125,1.861328125,-0.19775390625,38.29193115234375,21.7742919921875,-8.72039794921875,-43.33235653235653,-15.593650793650793,-16.793162393162394
57:31.001,-1.67626953125,-0.29248046875,-0.646484375,34.79766845703125,-14.42718505859375,1.65557861328125,13.194627594627594,30.737484737484735,19.791941391941393,0.55322265625,1.9423828125,0.38330078125,-1.74713134765625,-46.48590087890625,-15.13671875,-20.69157509157509,-105.70695970695971,17.093040293040293,1.1220703125,1.7392578125,-0.03173828125,-13.00048828125,6.7138671875,-19.26422119140625,-56.526984126984125,29.83785103785104,-42.88253968253968
57:31.927,-1.8974609375,0.02685546875,-0.1591796875,52.398681640625,-2.61688232421875,10.9710693359375,-6.897191697191697,33.88620268620269,-5.997557997557998,0.55322265625,1.9423828125,0.38330078125,-20.75958251953125,-35.82000732421875,-2.105712890625,-26.389255189255188,-102.85811965811965,0.4498168498168498,1.1220703125,1.7392578125,-0.03173828125,41.534423828125,-7.92694091796875,5.08880615234375,-62.67448107448107,34.485958485958484,-39.733821733821735
57:32.756,-1.8251953125,-0.51171875,-0.458984375,30.21240234375,-2.00653076171875,2.17437744140625,-15.443711843711844,32.536752136752135,-26.539194139194137,-0.0107421875,1.93896484375,0.36865234375,-20.75958251953125,-35.82000732421875,-2.105712890625,-26.389255189255188,-102.85811965811965,0.4498168498168498,0.712890625,2.1162109375,-0.08642578125,41.534423828125,-7.92694091796875,5.08880615234375,-57.42661782661782,56.377045177045176,10.045909645909646
57:33.634,-2.19921875,-0.03515625,-0.29345703125,25.96282958984375,20.92742919921875,4.57000732421875,-12.594871794871795,30.737484737484735,-35.985347985347985,0.33984375,2.201171875,0.3662109375,-18.95904541015625,-42.0379638671875,-6.89697265625,-28.338461538461537,-96.1108669108669,-9.895970695970696,0.76416015625,2.4033203125,-0.9248046875,48.16436767578125,-56.58721923828125,-88.7908935546875,-57.42661782661782,56.377045177045176,10.045909645909646
57:34.462,-2.1044921875,-0.05810546875,-0.23681640625,7.110595703125,-41.84722900390625,-4.1656494140625,-2.6989010989010986,29.987789987789988,-40.48351648351648,0.21533203125,2.216796875,0.294921875,-17.2576904296875,14.1143798828125,6.622314453125,-28.488400488400487,-89.36361416361416,-5.547741147741148,0.99365234375,1.70361328125,-0.3583984375,-12.36724853515625,-16.24298095703125,4.78363037109375,-40.63345543345543,57.27667887667887,40.18363858363858
57:35.340,-1.90576171875,-0.3583984375,-0.318359375,-4.0130615234375,-2.8076171875,-6.56890869140625,1.1995115995115995,33.58632478632479,-38.084493284493284,-0.01123046875,1.97705078125,0.166015625,-5.63812255859375,1.0833740234375,1.07574462890625,-31.936996336996337,-88.46398046398046,-7.047130647130647,-0.419921875,2.8876953125,-1.35107421875,-71.38824462890625,67.8558349609375,137.939453125,-68.82197802197803,11.995115995115995,15.143833943833943
57:36.169,-1.90576171875,-0.3583984375,-0.318359375,-4.0130615234375,-2.8076171875,-6.56890869140625,11.395360195360196,35.38559218559219,-30.587545787545785,0.5078125,1.92578125,0.34130859375,0.0,16.357421875,0.1220703125,-32.236874236874236,-82.91623931623931,1.0495726495726496,1.080078125,2.16259765625,0.03857421875,26.19171142578125,-44.2352294921875,-92.3309326171875,-48.43028083028083,28.93821733821734,35.835409035409036
57:36.997,-1.89013671875,-0.130859375,-0.0595703125,-12.27569580078125,5.16510009765625,-5.9661865234375,11.395360195360196,35.38559218559219,-30.587545787545785,0.3076171875,1.86279296875,0.091796875,6.2255859375,70.27435302734375,14.97650146484375,-33.58632478632479,-87.86422466422466,-3.7484737484737485,1.185546875,1.7109375,-0.20166015625,16.63970947265625,22.4456787109375,11.5814208984375,-48.73015873015873,28.488400488400487,25.03980463980464
57:37.827,-1.84130859375,-0.0361328125,-0.3134765625,-63.16375732421875,-2.23541259765625,-9.46807861328125,1.799267399267399,36.135286935286935,-35.08571428571428,0.3076171875,1.86279296875,0.091796875,6.2255859375,70.27435302734375,14.97650146484375,-33.73626373626374,-96.86056166056166,-7.796825396825397,1.185546875,1.7109375,-0.20166015625,16.63970947265625,22.4456787109375,11.5814208984375,-55.62735042735043,18.742368742368743,-12.294993894993894
57:38.704,-1.681640625,-0.0517578125,-0.41650390625,-24.77264404296875,-1.62506103515625,-4.7607421875,-11.845177045177044,37.48473748473749,-32.236874236874236,0.0458984375,1.8876953125,0.30810546875,1.7242431640625,25.238037109375,-4.29534912109375,-33.73626373626374,-96.86056166056166,-7.796825396825397,1.10107421875,1.57763671875,-0.39453125,115.1123046875,184.68475341796875,-22.613525390625,-55.62735042735043,18.742368742368743,-12.294993894993894
57:39.532,-1.68115234375,-0.28271484375,-0.4130859375,25.360107421875,11.95526123046875,-4.302978515625,-9.895970695970696,37.33479853479853,-26.689133089133087,0.29443359375,1.765625,0.28857421875,-1.861572265625,-21.1639404296875,3.34930419921875,-30.887423687423688,-99.1096459096459,-0.4498168498168498,1.091796875,1.80078125,-0.13818359375,-34.0576171875,-26.85546875,9.429931640625,-58.92600732600732,19.791941391941393,-14.394139194139193
57:40.361,-1.95556640625,-0.0263671875,-0.57861328125,-7.48443603515625,-34.1033935546875,-11.0626220703125,-9.895970695970696,37.03492063492063,-26.98901098901099,0.302734375,2.05859375,0.1708984375,-2.76947021484375,14.5111083984375,3.7994384765625,-32.236874236874236,-98.65982905982905,1.0495726495726496,1.3203125,2.03857421875,-2.26611328125,12.32147216796875,63.94195556640625,55.76324462890625,-58.77606837606837,24.29010989010989,-23.690354090354088
57:41.239,-1.95556640625,-0.0263671875,-0.57861328125,-42.6177978515625,-14.5263671875,-26.90887451171875,-2.848840048840049,34.186080586080585,-41.683028083028084,0.52392578125,1.951171875,0.22021484375,-19.6533203125,56.427001953125,-6.4239501953125,-31.787057387057384,-92.2124542124542,-10.495726495726496,1.126953125,2.01220703125,-0.16064453125,17.8985595703125,8.41522216796875,-70.80841064453125,-46.93089133089133,30.287667887667887,-3.1487179487179486
57:42.165,-2.09228515625,-0.109375,-0.2451171875,-42.6177978515625,-14.5263671875,-26.90887451171875,-11.845177045177044,36.435164835164834,-26.08937728937729,0.3017578125,2.6171875,0.3115234375,-35.65216064453125,55.19866943359375,35.72845458984375,-28.638339438339436,-102.4083028083028,-1.799267399267399,1.19287109375,1.6142578125,-0.36865234375,7.48443603515625,-4.4097900390625,-26.78680419921875,-46.78095238095238,26.23931623931624,-7.946764346764346
57:43.042,-2.16015625,-0.2255859375,-0.59716796875,-48.53057861328125,15.67840576171875,12.55035400390625,-11.845177045177044,36.435164835164834,-26.08937728937729,0.00439453125,2.0703125,-0.0888671875,7.89642333984375,18.1121826171875,1.2054443359375,-27.288888888888888,-103.9076923076923,24.589987789987788,0.7744140625,1.85009765625,-0.5302734375,-72.3724365234375,134.521484375,125.35858154296875,-33.73626373626374,8.846398046398047,2.249084249084249
57:43.871,-1.7744140625,-0.26123046875,-0.9189453125,-17.0745849609375,-20.7061767578125,-1.99127197265625,2.399023199023199,37.33479853479853,3.2986568986568985,0.00439453125,2.0703125,-0.0888671875,7.89642333984375,18.1121826171875,1.2054443359375,-23.09059829059829,-100.3091575091575,29.238095238095237,0.7744140625,1.85009765625,-0.5302734375,-72.3724365234375,134.521484375,125.35858154296875,-70.32136752136752,-5.697680097680098,-20.54163614163614
57:44.749,-0.9541015625,-0.74072265625,0.984375,-23.41461181640625,-23.468017578125,-29.388427734375,10.795604395604395,34.485958485958484,9.146275946275946,0.44775390625,1.787109375,0.20361328125,3.34930419921875,2.93731689453125,0.732421875,-16.793162393162394,-98.35995115995115,41.38315018315018,0.91064453125,1.82470703125,-0.40234375,-5.0048828125,-11.6119384765625,-36.9415283203125,-15.443711843711844,-19.042246642246642,22.79072039072039
57:45.626,-2.19775390625,-0.62841796875,-0.31591796875,-14.007568359375,63.2476806640625,74.27215576171875,26.83907203907204,12.594871794871795,44.38192918192918,0.10546875,2.017578125,0.1484375,7.4920654296875,1.18255615234375,2.0904541015625,-16.793162393162394,-98.35995115995115,41.38315018315018,2.00341796875,1.876953125,-1.56982421875,74.40185546875,67.474365234375,-39.24560546875,-15.443711843711844,-19.042246642246642,22.79072039072039
57:46.553,-1.8828125,-0.0654296875,-0.57763671875,135.13946533203125,16.80755615234375,26.1077880859375,20.24175824175824,25.78949938949939,15.743589743589743,0.1845703125,2.119140625,0.171875,-21.1639404296875,-146.3775634765625,-24.83367919921875,-18.892307692307693,-93.56190476190476,30.437606837606836,0.70654296875,2.18798828125,0.5078125,-95.5047607421875,-111.50360107421875,50.1251220703125,-19.49206349206349,17.692796092796094,-17.842735042735043
57:47.479,-2.177734375,0.001953125,0.06982421875,44.34967041015625,2.99072265625,-0.6103515625,-0.7496947496947497,34.485958485958484,-1.4993894993894994,0.2197265625,2.0888671875,0.220703125,-26.98516845703125,-35.888671875,-12.420654296875,-20.69157509157509,-103.45787545787546,24.14017094017094,1.14013671875,1.70703125,-0.37060546875,-17.9443359375,-46.42486572265625,11.1846923828125,-45.58144078144078,36.88498168498168,-17.242979242979242
57:48.307,-1.4072265625,0.060546875,-0.3115234375,38.65814208984375,-16.54052734375,-16.29638671875,-7.796825396825397,29.83785103785104,-23.24053724053724,0.26123046875,1.68701171875,0.12841796875,0.05340576171875,-14.251708984375,-18.8751220703125,-25.18974358974359,-96.26080586080586,1.4993894993894994,0.2841796875,1.25732421875,0.8046875,-118.12591552734375,-87.7838134765625,38.76495361328125,-20.841514041514042,62.37460317460317,59.07594627594627
57:49.136,-1.4072265625,0.060546875,-0.3115234375,38.65814208984375,-16.54052734375,-16.29638671875,0.14993894993894993,28.93821733821734,-35.08571428571428,0.42138671875,1.76708984375,0.173828125,-9.2010498046875,40.95458984375,13.427734375,-28.338461538461537,-89.21367521367522,-3.8984126984126983,1.06494140625,1.775390625,-0.25439453125,-11.10076904296875,-21.0723876953125,-6.40869140625,-10.045909645909646,45.28156288156288,83.81587301587301
57:49.965,-1.79052734375,0.07861328125,-0.462890625,-47.54638671875,-31.8603515625,-13.9923095703125,0.14993894993894993,28.93821733821734,-35.08571428571428,0.42138671875,1.76708984375,0.173828125,-4.44793701171875,17.9901123046875,-10.09368896484375,-28.488400488400487,-87.86422466422466,-2.399023199023199,1.06494140625,1.775390625,-0.25439453125,54.443359375,0.54168701171875,-110.61859130859375,-68.07228327228327,39.13406593406593,-6.597313797313797
57:50.794,-2.05908203125,-0.0693359375,-0.06640625,-16.0064697265625,8.73565673828125,-13.74053955078125,-9.596092796092796,31.337240537240536,-32.836630036630034,0.55810546875,1.96435546875,0.39599609375,-4.44793701171875,17.9901123046875,-10.09368896484375,-28.638339438339436,-95.36117216117216,-7.796825396825397,0.69482421875,2.49560546875,-0.80029296875,54.443359375,0.54168701171875,-110.61859130859375,-52.32869352869353,45.88131868131868,5.547741147741148
57:51.672,-2.1708984375,-0.126953125,-0.54443359375,-88.89007568359375,7.01141357421875,-6.0272216796875,-14.394139194139193,31.037362637362637,-36.435164835164834,0.2626953125,2.32470703125,0.29833984375,-21.53778076171875,83.01544189453125,26.19171142578125,-27.738705738705736,-97.46031746031746,2.249084249084249,1.82177734375,0.94580078125,0.0244140625,11.75689697265625,16.204833984375,22.9949951171875,-58.77606837606837,11.695238095238095,-1.6493284493284492
57:52.646,-1.94580078125,-0.037109375,-0.30810546875,-38.59710693359375,-3.7689208984375,-6.09588623046875,-9.296214896214895,32.98656898656898,-14.394139194139193,0.3623046875,2.05615234375,0.3408203125,-3.5400390625,29.22821044921875,-4.08172607421875,-27.738705738705736,-97.46031746031746,2.249084249084249,0.85009765625,1.87109375,-0.44482421875,88.6688232421875,182.525634765625,-106.719970703125,-58.77606837606837,11.695238095238095,-1.6493284493284492
57:53.475,-1.95556640625,-0.10498046875,-0.32861328125,-27.10723876953125,12.48931884765625,-9.04083251953125,-1.9492063492063492,35.38559218559219,5.547741147741148,0.2578125,2.22802734375,0.29296875,-23.46038818359375,24.45220947265625,20.59173583984375,-24.739926739926737,-106.0068376068376,20.24175824175824,1.353515625,1.63232421875,-0.28759765625,8.4686279296875,-13.5498046875,-20.59173583984375,-64.17387057387057,19.64200244200244,-12.744810744810744
57:54.450,-1.76611328125,-0.12890625,-0.0126953125,-3.62396240234375,4.82177734375,-16.5252685546875,17.242979242979242,30.587545787545785,12.894749694749695,0.35791015625,1.95849609375,0.37158203125,-3.53240966796875,1.42669677734375,-8.026123046875,-17.242979242979242,-88.6139194139194,37.33479853479853,0.875,2.12109375,0.068359375,-8.72802734375,-19.53887939453125,-53.33709716796875,-12.294993894993894,-20.39169719169719,29.238095238095237
57:55.376,-1.8134765625,0.05126953125,0.2255859375,23.8494873046875,5.5084228515625,-2.716064453125,17.54285714285714,29.537973137973136,17.992673992673993,-0.041015625,1.8779296875,0.1982421875,-20.01190185546875,-35.2783203125,12.68768310546875,-17.093040293040293,-99.1096459096459,41.683028083028084,1.3486328125,1.5537109375,-0.34326171875,-5.57708740234375,-6.7138671875,15.9454345703125,-37.03492063492063,-16.49328449328449,-0.8996336996336995
57:56.205,-1.8134765625,0.05126953125,0.2255859375,67.13104248046875,1.556396484375,4.87518310546875,7.796825396825397,28.188522588522588,14.394139194139193,0.21240234375,1.9013671875,0.16357421875,10.8795166015625,-67.32940673828125,-12.38250732421875,-17.39291819291819,-100.6090354090354,36.135286935286935,0.458984375,2.17822265625,0.53076171875,-54.8858642578125,-37.8265380859375,1.617431640625,1.1995115995115995,20.69157509157509,-5.547741147741148
57:57.034,-1.6533203125,0.08935546875,-0.31201171875,67.13104248046875,1.556396484375,4.87518310546875,7.796825396825397,28.188522588522588,14.394139194139193,0.41796875,1.966796875,0.3173828125,-28.38897705078125,-20.6451416015625,-5.16510009765625,-23.39047619047619,-102.85811965811965,5.397802197802197,1.07080078125,1.73388671875,-0.3037109375,0.762939453125,-19.81353759765625,0.12969970703125,-41.08327228327228,39.883760683760684,-28.93821733821734
57:58.106,-2.01806640625,0.107421875,0.11865234375,22.20916748046875,-11.32965087890625,-6.69097900390625,-12.444932844932845,30.887423687423688,-28.338461538461537,0.1904296875,1.94580078125,0.20263671875,-2.9144287109375,-4.15802001953125,-4.44793701171875,-26.689133089133087,-96.7106227106227,-2.399023199023199,0.74853515625,1.48291015625,0.484375,-58.9447021484375,124.1302490234375,37.872314453125,-39.883760683760684,61.624908424908426,9.146275946275946
57:58.935,-1.73486328125,0.03173828125,-0.33837890625,-4.364013671875,11.0321044921875,0.030517578125,-12.444932844932845,30.887423687423688,-28.338461538461537,0.1904296875,1.94580078125,0.20263671875,-8.97216796875,35.46142578125,7.4920654296875,-30.287667887667887,-89.36361416361416,-6.297435897435897,0.74853515625,1.48291015625,0.484375,14.50347900390625,2.95257568359375,-1.28173828125,-34.036141636141636,53.82808302808303,26.83907203907204
57:59.813,-1.90087890625,-0.0244140625,-0.06396484375,-42.2515869140625,-13.11492919921875,-18.01300048828125,-7.347008547008547,34.93577533577533,-34.635897435897434,0.1806640625,1.98046875,0.37548828125,-8.97216796875,35.46142578125,7.4920654296875,-28.638339438339436,-98.65982905982905,-3.8984126984126983,1.2294921875,1.69140625,-0.1875,14.50347900390625,2.95257568359375,-1.28173828125,-72.57045177045177,11.845177045177044,-10.195848595848595
58:00.641,-1.77978515625,-0.05078125,-0.44580078125,-21.3775634765625,-4.7454833984375,-16.2811279296875,-13.944322344322345,34.93577533577533,-32.686691086691084,0.33544921875,1.87841796875,0.32568359375,-14.2364501953125,17.333984375,-0.1068115234375,-28.638339438339436,-98.65982905982905,-3.8984126984126983,-0.2060546875,2.09326171875,-0.4521484375,41.4276123046875,103.32489013671875,-83.41217041015625,-72.57045177045177,11.845177045177044,-10.195848595848595
58:01.519,-2.06103515625,0.0869140625,-0.13671875,-5.0048828125,9.9029541015625,12.39776611328125,-14.244200244200243,36.285225885225884,-29.088156288156288,0.4580078125,2.00244140625,0.25439453125,26.31378173828125,-7.19451904296875,13.18359375,-30.287667887667887,-101.05885225885226,-0.5997557997557997,1.115234375,1.7412109375,-0.27587890625,-6.4697265625,4.29534912109375,-1.35040283203125,-65.37338217338217,29.537973137973136,-8.096703296703296
58:02.396,-1.86865234375,-0.1259765625,-0.3193359375,-37.97149658203125,-0.64849853515625,-5.19561767578125,-16.793162393162394,34.635897435897434,-16.943101343101343,0.19091796875,2.0234375,0.2666015625,-2.1820068359375,42.3126220703125,11.55853271484375,-27.738705738705736,-107.35628815628816,6.147496947496947,1.06103515625,1.92041015625,-0.3447265625,4.7760009765625,111.32049560546875,67.626953125,-62.82442002442002,9.296214896214895,-13.344566544566543
58:03.274,-1.86865234375,-0.1259765625,-0.3193359375,-21.087646484375,-8.97216796875,-0.99945068359375,-2.548962148962149,32.98656898656898,6.747252747252747,0.2998046875,1.8486328125,0.23876953125,-0.9002685546875,16.54815673828125,10.31494140625,-22.94065934065934,-106.75653235653235,22.04102564102564,1.17138671875,1.67333984375,-0.33935546875,3.97491455078125,-9.30023193359375,-15.09857177734375,-72.57045177045177,0.5997557997557997,-29.088156288156288
58:04.103,-1.7607421875,0.02197265625,-0.197265625,-21.087646484375,-8.97216796875,-0.99945068359375,7.796825396825397,32.536752136752135,16.793162393162394,0.10986328125,1.97314453125,0.32763671875,13.2598876953125,-14.678955078125,5.69915771484375,-19.64200244200244,-102.4083028083028,39.28400488400488,0.9111328125,1.35009765625,-0.1259765625,26.30615234375,84.73968505859375,28.75518798828125,-30.587545787545785,-19.042246642246642,-4.498168498168498
58:05.029,-1.775390625,-0.03955078125,-0.0458984375,6.12640380859375,24.39117431640625,4.791259765625,7.796825396825397,32.536752136752135,16.793162393162394,0.2333984375,2.00146484375,0.2314453125,-21.8963623046875,-26.49688720703125,-1.82342529296875,-17.093040293040293,-101.20879120879121,39.28400488400488,1.25830078125,1.6875,-0.29345703125,-14.83154296875,-19.5465087890625,6.7901611328125,-46.78095238095238,-5.997557997557998,-24.739926739926737
58:05.907,-1.81298828125,-0.228515625,-0.07763671875,34.03472900390625,-40.27557373046875,6.43157958984375,8.846398046398047,28.93821733821734,18.44249084249084,0.2333984375,2.00146484375,0.2314453125,4.20379638671875,-63.88092041015625,-19.1802978515625,-17.39291819291819,-100.6090354090354,40.33357753357753,1.25830078125,1.6875,-0.29345703125,-33.416748046875,-63.01116943359375,-62.3626708984375,-20.39169719169719,15.293772893772893,-25.33968253968254
58:06.735,-1.93701171875,0.06787109375,-0.38916015625,51.1627197265625,23.7274169921875,-0.732421875,9.146275946275946,30.587545787545785,13.194627594627594,0.2392578125,2.20849609375,0.3974609375,4.20379638671875,-63.88092041015625,-19.1802978515625,-17.39291819291819,-100.6090354090354,40.33357753357753,1.337890625,1.68408203125,0.07470703125,-33.416748046875,-63.01116943359375,-62.3626708984375,-20.39169719169719,15.293772893772893,-25.33968253968254
58:07.612,-1.84619140625,-0.09765625,-0.099609375,56.4422607421875,0.4730224609375,17.8375244140625,-15.743589743589743,32.836630036630034,-24.739926739926737,0.44921875,1.8720703125,0.3544921875,-8.392333984375,-61.45477294921875,-8.331298828125,-24.29010989010989,-102.4083028083028,1.0495726495726496,1.1416015625,1.66259765625,-0.38037109375,-6.78253173828125,-22.98736572265625,1.45721435546875,-28.788278388278385,66.27301587301586,23.84029304029304
58:08.636,-1.97607421875,-0.0859375,-0.232421875,9.75799560546875,-1.8157958984375,1.42669677734375,-13.794383394383393,30.887423687423688,-31.787057387057384,0.1943359375,1.9150390625,0.0732421875,-3.13568115234375,-15.05279541015625,-4.241943359375,-23.39047619047619,-98.50989010989011,-2.399023199023199,0.8115234375,1.60693359375,0.2734375,-72.662353515625,115.62347412109375,48.736572265625,-28.788278388278385,66.27301587301586,23.84029304029304
58:09.514,-1.8623046875,-0.04345703125,-0.08251953125,-79.8492431640625,23.345947265625,8.1024169921875,-7.646886446886446,33.28644688644688,-32.98656898656898,0.42578125,2.162109375,0.38525390625,18.7835693359375,40.6951904296875,26.22222900390625,-29.238095238095237,-90.11330891330891,-6.897191697191697,1.1220703125,1.78759765625,-0.16748046875,26.37481689453125,19.3023681640625,-15.76995849609375,-25.639560439560437,55.32747252747252,25.78949938949939
58:10.440,-1.8203125,-0.34326171875,-0.31591796875,-57.037353515625,-10.6048583984375,-7.8887939453125,-11.845177045177044,36.73504273504273,-24.14017094017094,0.13623046875,1.96337890625,0.30126953125,7.75909423828125,57.586669921875,14.984130859375,-28.488400488400487,-99.25958485958486,-2.998778998778999,1.25,1.83056640625,-1.04541015625,-16.7999267578125,-32.6995849609375,49.1485595703125,-69.87155067155066,19.941880341880342,-17.39291819291819
58:11.269,-1.8203125,-0.34326171875,-0.31591796875,-0.55694580078125,-1.44195556640625,-10.009765625,-9.446153846153846,37.48473748473749,-17.242979242979242,0.53125,1.92724609375,0.2607421875,-19.50836181640625,3.82232666015625,-0.9307861328125,-28.788278388278385,-104.35750915750916,6.147496947496947,0.8671875,1.8671875,-0.12060546875,-21.2249755859375,-9.6893310546875,-28.38897705078125,-48.43028083028083,22.79072039072039,1.3494505494505493
58:12.098,-1.97607421875,-0.21533203125,-0.32470703125,-0.55694580078125,-1.44195556640625,-10.009765625,-0.5997557997557997,36.435164835164834,0.4498168498168498,0.171875,1.97509765625,0.32861328125,-3.2501220703125,34.88922119140625,8.9263916015625,-26.389255189255188,-106.15677655677655,20.841514041514042,-0.66796875,3.11962890625,-0.55517578125,-132.843017578125,-110.60333251953125,145.04241943359375,-47.380708180708176,19.042246642246642,4.048351648351648
58:12.975,-1.85400390625,-0.48388671875,-0.48486328125,-32.98187255859375,-1.76239013671875,-2.22015380859375,-0.5997557997557997,36.435164835164834,0.4498168498168498,0.453125,1.9423828125,0.4404296875,3.18145751953125,-0.42724609375,-1.617431640625,-22.19096459096459,-101.95848595848595,32.98656898656898,1.05322265625,1.8857421875,-0.24951171875,-23.92578125,-3.30352783203125,-39.12353515625,-40.18363858363858,-27.88864468864469,10.345787545787545
58:13.853,-1.90673828125,-0.0634765625,-0.15185546875,-0.31280517578125,3.59344482421875,5.645751953125,10.495726495726496,34.485958485958484,9.446153846153846,0.453125,1.9423828125,0.4404296875,2.66265869140625,-10.06317138671875,5.66864013671875,-18.29255189255189,-101.50866910866911,41.533089133089135,1.05322265625,1.8857421875,-0.24951171875,9.91058349609375,12.73345947265625,-13.45062255859375,-52.02881562881563,-21.44126984126984,-9.446153846153846
58:14.779,-1.7177734375,-0.23486328125,-0.7060546875,12.71820068359375,-10.68115234375,2.38800048828125,13.044688644688645,32.386813186813185,18.29255189255189,0.04345703125,2.01708984375,0.34423828125,2.66265869140625,-10.06317138671875,5.66864013671875,-18.29255189255189,-101.50866910866911,41.533089133089135,0.97119140625,1.97705078125,-0.009765625,9.91058349609375,12.73345947265625,-13.45062255859375,-52.02881562881563,-21.44126984126984,-9.446153846153846
58:15.608,-1.9130859375,0.00439453125,-0.58251953125,89.3096923828125,7.232666015625,26.49688720703125,7.796825396825397,32.536752136752135,4.1982905982905985,0.41748046875,2.02001953125,0.29345703125,-9.62066650390625,-95.71075439453125,-17.17376708984375,-20.54163614163614,-101.05885225885226,32.386813186813185,1.0458984375,1.7294921875,0.0859375,-69.99969482421875,-44.16656494140625,9.7808837890625,-4.348229548229548,7.197069597069596,-6.747252747252747
58:16.436,-1.78466796875,-0.47900390625,-0.60986328125,40.8782958984375,3.34930419921875,4.2572021484375,-7.796825396825397,31.337240537240536,-9.895970695970696,0.033203125,1.9697265625,0.41064453125,-8.72039794921875,-35.919189453125,-13.03863525390625,-19.19218559218559,-105.25714285714285,20.99145299145299,0.59375,2.08642578125,-0.1318359375,59.5855712890625,-15.80810546875,-25.634765625,-33.58632478632479,20.24175824175824,-33.58632478632479
58:17.265,-1.78466796875,-0.47900390625,-0.60986328125,45.66192626953125,5.1422119140625,16.387939453125,-14.244200244200243,30.587545787545785,-28.638339438339436,0.4072265625,2.00390625,0.40478515625,-5.3253173828125,-47.0428466796875,-11.52801513671875,-23.99023199023199,-101.65860805860805,3.4485958485958483,0.7861328125,2.10693359375,-0.03369140625,-16.85333251953125,-39.02435302734375,-52.9632568359375,-49.179975579975576,46.33113553113553,-26.98901098901099
58:18.094,-2.1044921875,-0.21484375,-0.47021484375,45.66192626953125,5.1422119140625,16.387939453125,-8.996336996336996,28.638339438339436,-43.93211233211233,0.01318359375,1.9560546875,0.3798828125,0.09918212890625,11.98577880859375,3.27301025390625,-29.537973137973136,-95.96092796092796,-7.646886446886446,0.8681640625,1.9501953125,-0.08349609375,34.78240966796875,-11.199951171875,-9.368896484375,-39.583882783882785,57.27667887667887,3.8984126984126983
58:18.971,-1.787109375,-0.6044921875,-0.57958984375,-15.31219482421875,-6.05010986328125,-5.82122802734375,-8.996336996336996,28.638339438339436,-43.93211233211233,0.52783203125,1.8583984375,0.15625,-11.36016845703125,27.12249755859375,-12.79449462890625,-31.787057387057384,-91.16288156288157,-10.795604395604395,0.5673828125,1.3994140625,-0.02685546875,3.5400390625,141.693115234375,-77.23236083984375,-86.06495726495726,26.539194139194137,0.7496947496947497
58:19.849,-1.9111328125,-0.1005859375,-0.53515625,-17.6239013671875,-44.0521240234375,-19.82879638671875,-2.998778998778999,31.487179487179485,-46.33113553113553,0.52783203125,1.8583984375,0.15625,-11.36016845703125,27.12249755859375,-12.79449462890625,-32.686691086691084,-93.26202686202686,-10.195848595848595,0.5673828125,1.3994140625,-0.02685546875,-8.62884521484375,3.37982177734375,-3.0364990234375,-65.52332112332113,40.93333333333333,-2.998778998778999
58:20.726,-1.89697265625,-0.3798828125,-0.37353515625,-52.3223876953125,1.06048583984375,2.51007080078125,-5.247863247863248,33.28644688644688,-40.48351648351648,0.453125,2.02490234375,0.1650390625,19.439697265625,51.3763427734375,17.64678955078125,-32.686691086691084,-93.26202686202686,-10.195848595848595,1.01416015625,1.7939453125,-0.30810546875,-8.62884521484375,3.37982177734375,-3.0364990234375,-65.52332112332113,40.93333333333333,-2.998778998778999
58:21.555,-1.65283203125,-0.482421875,-0.60791015625,-58.34197998046875,-21.3165283203125,-3.83758544921875,-9.296214896214895,36.58510378510378,-9.895970695970696,0.10400390625,1.95654296875,0.220703125,14.7705078125,56.304931640625,6.08062744140625,-25.78949938949939,-109.0056166056166,7.347008547008547,1.0,2.1259765625,-0.369140625,-23.21624755859375,83.7249755859375,113.05999755859375,-63.42417582417582,10.645665445665445,-11.695238095238095
58:22.384,-2.02880859375,-0.05859375,-0.20458984375,-22.3236083984375,6.98089599609375,-3.51715087890625,6.297435897435897,34.485958485958484,8.096703296703296,0.41064453125,2.111328125,0.10302734375,-9.9945068359375,15.95306396484375,8.20159912109375,-23.84029304029304,-105.85689865689865,28.638339438339436,1.1328125,1.70654296875,-0.3466796875,-0.213623046875,-7.30133056640625,-10.406494140625,-58.92600732600732,-20.39169719169719,-9.446153846153846
58:23.310,-1.6708984375,-0.2900390625,-0.4580078125,29.4952392578125,16.7083740234375,12.847900390625,14.544078144078144,33.28644688644688,14.394139194139193,0.16796875,1.94677734375,0.20166015625,10.21575927734375,-34.9273681640625,-6.47735595703125,-19.49206349206349,-100.75897435897436,38.084493284493284,0.642578125,1.84716796875,0.12060546875,-19.84405517578125,10.223388671875,102.05078125,-22.19096459096459,-22.34090354090354,10.945543345543346
58:24.480,-2.0478515625,-0.3115234375,-0.28955078125,41.05377197265625,11.90185546875,6.3018798828125,9.446153846153846,31.936996336996337,11.545299145299145,0.39892578125,2.015625,0.09814453125,-15.02227783203125,-31.6009521484375,-7.11822509765625,-17.692796092796094,-101.50866910866911,37.33479853479853,1.04052734375,1.767578125,-0.24169921875,-20.13397216796875,-9.8724365234375,-4.72259521484375,-31.037362637362637,-11.245421245421245,-14.694017094017093
58:25.358,-1.88916015625,-0.365234375,-0.478515625,33.0810546875,9.54437255859375,3.63922119140625,8.096703296703296,29.83785103785104,8.096703296703296,0.1708984375,2.04296875,0.32958984375,-6.14166259765625,-35.4461669921875,-11.84844970703125,-17.093040293040293,-101.20879120879121,31.936996336996337,1.912109375,1.3232421875,1.08251953125,-45.0592041015625,-133.85009765625,13.84735107421875,-11.995115995115995,12.294993894993894,-18.29255189255189
58:26.235,-1.88916015625,-0.365234375,-0.478515625,36.30828857421875,10.31494140625,20.65277099609375,-7.796825396825397,31.337240537240536,-17.842735042735043,0.4150390625,1.88720703125,0.41552734375,1.312255859375,-41.8853759765625,-0.732421875,-20.54163614163614,-102.85811965811965,8.546520146520146,1.01416015625,1.76220703125,-0.43359375,-5.9051513671875,-31.5399169921875,-16.36505126953125,-25.18974358974359,39.883760683760684,-25.78949938949939
58:27.113,-1.79296875,-0.34716796875,-0.2548828125,36.30828857421875,10.31494140625,20.65277099609375,-12.444932844932845,28.488400488400487,-30.437606837606836,0.1337890625,1.9921875,0.22021484375,-8.97216796875,-19.256591796875,3.10516357421875,-25.03980463980464,-98.65982905982905,-2.548962148962149,-0.2265625,2.0927734375,-1.546875,-14.47296142578125,-54.34417724609375,37.52899169921875,-18.142612942612942,59.22588522588522,12.444932844932845
58:27.941,-1.8681640625,-0.36279296875,-0.61376953125,11.39068603515625,-3.021240234375,6.30950927734375,-12.444932844932845,28.488400488400487,-30.437606837606836,0.1337890625,1.9921875,0.22021484375,6.34002685546875,-7.476806640625,1.3580322265625,-27.88864468864469,-91.31282051282051,-7.496947496947497,0.96728515625,1.89794921875,-0.3525390625,-15.69366455078125,-20.44677734375,-22.125244140625,-83.66593406593407,27.588766788766787,-1.3494505494505493
58:28.868,-1.88134765625,-0.1865234375,-0.2939453125,5.2490234375,14.2059326171875,2.18963623046875,-3.7484737484737485,31.487179487179485,-41.533089133089135,0.42578125,1.95849609375,0.28173828125,6.34002685546875,-7.476806640625,1.3580322265625,-29.238095238095237,-94.91135531135531,-7.946764346764346,0.96728515625,1.89794921875,-0.3525390625,-15.69366455078125,-20.44677734375,-22.125244140625,-77.81831501831502,31.936996336996337,-14.244200244200243
58:29.696,-1.85205078125,-0.3525390625,-0.64501953125,-93.2159423828125,-13.60321044921875,-13.32855224609375,-7.796825396825397,30.587545787545785,-38.234432234432234,0.0927734375,2.04345703125,0.15185546875,7.37762451171875,89.7064208984375,16.01409912109375,-29.238095238095237,-94.91135531135531,-7.946764346764346,0.16796875,2.65478515625,-0.3681640625,-20.79010009765625,-17.51708984375,62.6220703125,-77.81831501831502,31.936996336996337,-14.244200244200243
58:30.525,-1.9716796875,-0.19140625,-0.2421875,-5.9051513671875,-2.99835205078125,-9.002685546875,-11.545299145299145,34.635897435897434,-35.08571428571428,0.4345703125,1.93994140625,0.31103515625,-14.3585205078125,10.91766357421875,-2.4566650390625,-31.187301587301587,-96.56068376068376,-9.596092796092796,0.8828125,1.83984375,-0.0751953125,-29.5867919921875,12.054443359375,-21.15631103515625,-61.17509157509157,19.941880341880342,-11.395360195360196
58:31.403,-1.88671875,-0.41943359375,-0.41259765625,-41.60308837890625,-0.61798095703125,1.27410888671875,-2.848840048840049,36.285225885225884,-8.246642246642246,0.17626953125,1.9853515625,0.38623046875,10.90240478515625,37.6739501953125,7.48443603515625,-25.03980463980464,-100.15921855921856,11.245421245421245,0.16455078125,2.0615234375,-0.34619140625,18.12744140625,-44.07501220703125,-15.2587890625,-64.47374847374847,11.395360195360196,-10.795604395604395
58:32.280,-1.931640625,-0.32421875,-0.37744140625,6.96563720703125,21.49200439453125,-1.18255615234375,2.848840048840049,33.58632478632479,8.246642246642246,0.34423828125,2.0380859375,0.39208984375,-5.39398193359375,-11.474609375,-5.28717041015625,-21.59120879120879,-103.6078144078144,29.987789987789988,1.009765625,1.791015625,-0.3583984375,-15.46478271484375,-6.20269775390625,-28.98406982421875,-28.188522588522588,-19.19218559218559,-4.947985347985348
58:33.206,-1.931640625,-0.32421875,-0.37744140625,22.22442626953125,-14.01519775390625,2.7313232421875,9.746031746031745,31.936996336996337,8.846398046398047,0.06005859375,2.06591796875,0.1279296875,-9.9029541015625,-23.46038818359375,7.049560546875,-18.29255189255189,-94.91135531135531,33.88620268620269,0.7294921875,1.869140625,0.0322265625,23.9715576171875,35.5377197265625,15.5029296875,-35.835409035409036,-14.244200244200243,-13.644444444444444
58:34.133,-1.7666015625,-0.26611328125,-0.6083984375,22.22442626953125,-14.01519775390625,2.7313232421875,0.29987789987789987,31.337240537240536,-0.7496947496947497,0.36669921875,1.9365234375,0.1708984375,-12.47406005859375,-87.85247802734375,-21.12579345703125,-20.841514041514042,-102.55824175824175,24.739926739926737,0.890625,1.8623046875,0.02294921875,-67.3828125,-80.05523681640625,29.74700927734375,-41.683028083028084,28.03858363858364,-37.634676434676436
58:35.156,-1.8271484375,-0.20068359375,-0.623046875,78.582763671875,22.28546142578125,6.90460205078125,-9.596092796092796,30.587545787545785,-26.98901098901099,0.21240234375,1.93115234375,0.27392578125,-7.4005126953125,-8.75091552734375,0.1678466796875,-22.19096459096459,-93.56190476190476,2.6989010989010986,1.1513671875,1.701171875,-0.27099609375,9.13238525390625,-5.82122802734375,16.91436767578125,-59.67570207570208,35.08571428571428,-38.83418803418803
58:36.034,-1.7705078125,-0.41357421875,-0.451171875,16.73126220703125,-3.7384033203125,3.48663330078125,-9.596092796092796,30.587545787545785,-26.98901098901099,0.20068359375,2.00390625,0.255859375,0.38909912109375,-20.33233642578125,-5.9967041015625,-26.98901098901099,-96.7106227106227,-5.097924297924298,0.54931640625,1.26708984375,0.6484375,-120.4681396484375,-29.0985107421875,49.47662353515625,-54.577777777777776,55.62735042735043,-2.0991452991452992
58:36.960,-1.63525390625,-0.255859375,-0.53369140625,19.34814453125,-9.8419189453125,-2.25067138671875,-7.496947496947497,33.73626373626374,-33.88620268620269,0.20068359375,2.00390625,0.255859375,7.9193115234375,94.7113037109375,28.4271240234375,-29.687912087912085,-91.01294261294261,-6.447374847374848,0.54931640625,1.26708984375,0.6484375,6.744384765625,25.45928955078125,-10.0555419921875,-36.135286935286935,55.32747252747252,30.287667887667887
58:37.789,-1.837890625,-0.33837890625,-0.384765625,-91.51458740234375,-29.937744140625,-25.03204345703125,0.29987789987789987,25.93943833943834,-39.28400488400488,0.47119140625,1.90087890625,0.23046875,7.9193115234375,94.7113037109375,28.4271240234375,-29.687912087912085,-91.01294261294261,-6.447374847374848,1.00830078125,1.80419921875,-0.27587890625,6.744384765625,25.45928955078125,-10.0555419921875,-42.13284493284493,23.99023199023199,-26.83907203907204
58:38.666,-1.80224609375,-0.56494140625,-0.5166015625,-41.900634765625,9.01031494140625,-9.9334716796875,-10.345787545787545,33.73626373626374,-22.94065934065934,0.064453125,1.96484375,0.35546875,2.7618408203125,45.745849609375,-2.52532958984375,-25.639560439560437,-105.55702075702075,-0.8996336996336995,0.14697265625,2.1435546875,-0.7783203125,-8.85009765625,42.30499267578125,85.2508544921875,-42.13284493284493,23.99023199023199,-26.83907203907204
58:39.593,-1.9208984375,-0.376953125,-0.2998046875,-2.96783447265625,2.3956298828125,-4.39453125,5.547741147741148,32.386813186813185,1.3494505494505493,0.5205078125,2.00146484375,0.31005859375,4.03594970703125,5.7373046875,-1.52587890625,-20.841514041514042,-102.25836385836385,25.78949938949939,0.95166015625,1.9326171875,-0.091796875,-33.660888671875,-14.83917236328125,-32.5469970703125,-12.145054945054945,-15.143833943833943,13.644444444444444
58:40.422,-1.81787109375,-0.7509765625,-0.58740234375,19.17266845703125,-10.52093505859375,8.49151611328125,14.544078144078144,29.987789987789988,13.044688644688645,0.0595703125,2.078125,0.29248046875,-30.0140380859375,-13.19122314453125,14.18304443359375,-20.09181929181929,-101.50866910866911,37.33479853479853,1.17578125,1.6767578125,-0.23388671875,2.38037109375,-17.20428466796875,0.90789794921875,-11.845177045177044,-16.193406593406593,16.49328449328449
58:41.251,-1.81787109375,-0.7509765625,-0.58740234375,55.9539794921875,20.1416015625,11.3677978515625,12.294993894993894,29.537973137973136,7.496947496947497,0.1767578125,1.9921875,0.212890625,-0.43487548828125,-68.03131103515625,-18.9056396484375,-18.59242979242979,-99.4095238095238,34.78583638583638,0.833984375,1.87353515625,0.08642578125,-5.8746337890625,-11.0321044921875,-43.26629638671875,18.29255189255189,13.644444444444444,19.49206349206349
58:42.128,-1.76220703125,-0.50390625,-0.62841796875,55.9539794921875,20.1416015625,11.3677978515625,-7.946764346764346,31.487179487179485,-12.444932844932845,0.35302734375,1.98193359375,0.35009765625,-4.32586669921875,-5.95855712890625,-1.25885009765625,-21.14139194139194,-102.4083028083028,12.294993894993894,1.08251953125,1.75244140625,-0.36376953125,3.04412841796875,-15.70892333984375,-0.72479248046875,-21.14139194139194,35.985347985347985,-22.64078144078144
58:43.298,-1.8251953125,-0.33984375,-0.712890625,19.11163330078125,21.6522216796875,-1.30462646484375,-7.347008547008547,33.58632478632479,-24.44004884004884,0.1748046875,1.88427734375,0.142578125,-2.22015380859375,-29.5257568359375,-11.7340087890625,-22.49084249084249,-102.4083028083028,5.847619047619047,0.50048828125,2.0234375,0.15478515625,-84.991455078125,64.12506103515625,135.59722900390625,-13.194627594627594,46.78095238095238,-6.597313797313797
58:44.419,-1.8232421875,-0.365234375,-0.27099609375,-12.15362548828125,-8.61358642578125,4.8370361328125,-8.246642246642246,34.186080586080585,-35.23565323565323,0.47119140625,1.8837890625,0.3212890625,3.27301025390625,11.95526123046875,10.0250244140625,-26.389255189255188,-97.01050061050061,-7.347008547008547,1.0869140625,1.72998046875,-0.35546875,6.91986083984375,-8.9874267578125,-11.45172119140625,-40.78339438339438,49.92967032967033,4.048351648351648
58:45.394,-1.85302734375,-0.36865234375,-0.67333984375,-76.8585205078125,-14.90020751953125,-9.368896484375,-8.996336996336996,34.635897435897434,-34.036141636141636,0.16064453125,2.0126953125,0.0595703125,1.3580322265625,71.14410400390625,17.70782470703125,-29.238095238095237,-101.05885225885226,-4.498168498168498,0.31201171875,2.45458984375,0.34765625,9.9334716796875,62.11090087890625,51.76544189453125,-69.72161172161172,27.738705738705736,-23.09059829059829
58:46.272,-1.85302734375,-0.36865234375,-0.67333984375,-24.63531494140625,-2.6092529296875,-18.9666748046875,-8.546520146520146,38.68424908424908,-29.088156288156288,0.4033203125,1.958984375,0.494140625,-12.21466064453125,32.40966796875,-3.71551513671875,-30.587545787545785,-102.25836385836385,-5.547741147741148,0.412109375,2.23486328125,-0.39111328125,50.01068115234375,73.96697998046875,-85.25848388671875,-52.928449328449325,16.793162393162394,4.947985347985348
58:47.344,-1.796875,-0.5126953125,-0.38232421875,-36.3616943359375,-30.98297119140625,-3.3721923828125,4.498168498168498,37.03492063492063,5.997557997557998,0.1259765625,2.00146484375,0.37890625,-3.62396240234375,28.08380126953125,22.1710205078125,-24.44004884004884,-106.6065934065934,27.13894993894994,1.1357421875,1.7216796875,-0.3349609375,-7.98797607421875,-6.98089599609375,-3.57818603515625,-57.57655677655677,21.14139194139194,-4.048351648351648
58:48.222,-1.796875,-0.5126953125,-0.38232421875,24.4903564453125,2.69317626953125,5.59234619140625,17.842735042735043,31.637118437118435,15.293772893772893,0.19091796875,2.0546875,0.21875,6.85882568359375,-26.75628662109375,-5.21087646484375,-20.09181929181929,-98.21001221001221,42.58266178266178,0.5361328125,1.7099609375,0.2763671875,-9.40704345703125,-50.96435546875,79.93316650390625,-30.587545787545785,-23.84029304029304,27.738705738705736
58:49.197,-1.8310546875,-0.4384765625,-0.7470703125,74.2645263671875,13.02337646484375,19.50836181640625,23.09059829059829,27.588766788766787,16.793162393162394,0.36767578125,2.03466796875,0.3134765625,-14.07623291015625,-67.7032470703125,-10.39886474609375,-17.093040293040293,-95.06129426129426,41.683028083028084,1.17041015625,1.69482421875,-0.20263671875,-29.998779296875,-8.9874267578125,2.46429443359375,-33.73626373626374,-19.49206349206349,24.88986568986569
58:50.123,-1.9453125,-0.427734375,-0.3203125,74.2645263671875,13.02337646484375,19.50836181640625,15.293772893772893,29.987789987789988,13.344566544566543,0.08447265625,2.02978515625,0.228515625,-7.2021484375,-36.224365234375,-1.251220703125,-15.893528693528692,-98.21001221001221,43.03247863247863,1.25244140625,1.5771484375,-0.0966796875,-20.660400390625,-51.0101318359375,3.326416015625,15.143833943833943,-17.39291819291819,20.841514041514042
58:51.244,-1.82861328125,-0.41552734375,-0.5830078125,38.10882568359375,17.9290771484375,19.04296875,-8.546520146520146,31.936996336996337,-18.142612942612942,0.5,1.91796875,0.359375,-0.57220458984375,-50.49896240234375,-7.54547119140625,-20.54163614163614,-102.85811965811965,10.945543345543346,1.0703125,1.76318359375,-0.33642578125,-7.68280029296875,-16.53289794921875,-24.05548095703125,-34.93577533577533,21.89108669108669,-34.485958485958484
58:52.073,-1.86376953125,-0.228515625,-0.37646484375,38.10882568359375,17.9290771484375,19.04296875,-12.744810744810744,31.936996336996337,-30.137728937728937,0.06982421875,2.00732421875,0.27978515625,11.1083984375,0.6866455078125,-1.40380859375,-23.24053724053724,-101.95848595848595,0.5997557997557997,0.13671875,1.87353515625,-0.9248046875,-43.4112548828125,-96.45843505859375,9.552001953125,-27.438827838827837,32.08693528693529,-21.44126984126984
58:52.950,-1.81005859375,-0.400390625,-0.7001953125,-6.0577392578125,-0.6561279296875,3.89862060546875,-12.744810744810744,31.936996336996337,-30.137728937728937,0.06982421875,2.00732421875,0.27978515625,11.05499267578125,-11.04736328125,-0.31280517578125,-28.788278388278385,-95.66105006105006,-8.396581196581197,0.13671875,1.87353515625,-0.9248046875,-7.1563720703125,-15.57159423828125,-41.98455810546875,-77.06862026862026,17.842735042735043,-17.39291819291819
58:53.828,-0.7841796875,-0.8623046875,1.30517578125,-11.32965087890625,-51.3916015625,-2.09808349609375,-9.296214896214895,29.537973137973136,-40.63345543345543,0.5673828125,1.91943359375,0.29443359375,11.05499267578125,-11.04736328125,-0.31280517578125,-29.987789987789988,-98.21001221001221,-9.446153846153846,0.9951171875,2.0380859375,-0.26513671875,-7.1563720703125,-15.57159423828125,-41.98455810546875,-69.72161172161172,29.537973137973136,-18.29255189255189
58:54.705,-2.12646484375,-0.10498046875,-0.90234375,-118.194580078125,14.7247314453125,23.53668212890625,25.33968253968254,31.637118437118435,30.287667887667887,0.3525390625,2.076171875,0.154296875,5.22613525390625,139.83154296875,27.82440185546875,-29.987789987789988,-98.21001221001221,-9.446153846153846,1.06591796875,1.8056640625,-0.22900390625,26.55029296875,26.92413330078125,-3.0975341796875,-69.72161172161172,29.537973137973136,-18.29255189255189
58:55.583,-2.00146484375,-0.24560546875,-0.7412109375,1.68609619140625,4.63104248046875,6.8206787109375,-15.593650793650793,35.835409035409036,-18.44249084249084,0.12744140625,2.1337890625,0.3779296875,-5.72967529296875,5.1422119140625,-8.4228515625,-27.288888888888888,-107.5062271062271,4.1982905982905985,0.90673828125,1.4111328125,-0.5068359375,-41.86248779296875,30.03692626953125,61.97357177734375,-53.97802197802198,12.444932844932845,0.7496947496947497
58:56.412,-1.99560546875,-0.10498046875,-0.7255859375,-12.5274658203125,27.3590087890625,-3.53240966796875,6.147496947496947,34.635897435897434,5.847619047619047,0.37060546875,2.09716796875,0.19287109375,0.18310546875,-1.01470947265625,-1.251220703125,-19.791941391941393,-105.85689865689865,37.03492063492063,1.13232421875,1.73974609375,-0.2275390625,-24.07073974609375,-9.60540771484375,-4.32586669921875,-67.32258852258852,5.247863247863248,-19.791941391941393
58:57.289,-1.85595703125,-0.0908203125,-0.916015625,40.8477783203125,6.26373291015625,8.0718994140625,7.796825396825397,33.88620268620269,10.645665445665445,0.2060546875,2.07958984375,0.36669921875,-18.33343505859375,-46.4324951171875,-11.55853271484375,-17.842735042735043,-102.7081807081807,39.28400488400488,1.3427734375,1.76806640625,0.0126953125,-77.57568359375,-208.86993408203125,17.25006103515625,-33.58632478632479,-15.293772893772893,-8.846398046398047
58:58.167,-1.85595703125,-0.0908203125,-0.916015625,40.8477783203125,6.26373291015625,8.0718994140625,-14.394139194139193,30.737484737484735,-28.188522588522588,0.458984375,2.03857421875,0.4658203125,1.2359619140625,-44.60906982421875,-2.79998779296875,-19.64200244200244,-106.45665445665445,7.646886446886446,1.03125,1.7626953125,-0.38134765625,-9.5977783203125,-15.56396484375,-11.60430908203125,-54.427838827838826,19.64200244200244,-38.68424908424908
58:59.044,-1.9462890625,0.0361328125,-0.59912109375,32.71484375,8.96453857421875,25.94757080078125,-14.394139194139193,30.737484737484735,-28.188522588522588,0.15234375,1.8701171875,0.29296875,-7.4005126953125,18.6767578125,3.83758544921875,-26.389255189255188,-100.3091575091575,-0.8996336996336995,0.7265625,2.298828125,-0.2509765625,-51.39923095703125,134.19342041015625,76.4617919921875,-44.38192918192918,34.336019536019535,-19.64200244200244
58:59.922,-1.61083984375,-0.24658203125,-0.66162109375,-19.61517333984375,9.5672607421875,-21.2554931640625,-13.344566544566543,27.88864468864469,-42.58266178266178,0.15234375,1.8701171875,0.29296875,8.3770751953125,69.54193115234375,19.500732421875,-30.587545787545785,-95.66105006105006,-7.646886446886446,0.7265625,2.298828125,-0.2509765625,7.24029541015625,12.53509521484375,-12.02392578125,-70.62124542124542,22.94065934065934,-8.996336996336996
59:00.750,-1.8828125,-0.0732421875,-1.00244140625,-67.474365234375,-6.75201416015625,-28.61785888671875,-4.947985347985348,28.03858363858364,-49.479853479853475,0.51806640625,1.96484375,0.27490234375,8.3770751953125,69.54193115234375,19.500732421875,-30.587545787545785,-95.66105006105006,-7.646886446886446,1.078125,1.79833984375,-0.298828125,7.24029541015625,12.53509521484375,-12.02392578125,-70.62124542124542,22.94065934065934,-8.996336996336996
59:01.628,-1.55517578125,-0.404296875,-1.0322265625,-70.04547119140625,-6.30950927734375,-32.82928466796875,-14.244200244200243,32.98656898656898,-39.28400488400488,0.0693359375,1.990234375,0.34326171875,18.66912841796875,83.94622802734375,11.077880859375,-29.987789987789988,-102.85811965811965,-0.5997557997557997,1.10498046875,2.06103515625,-0.93310546875,-22.6287841796875,181.55670166015625,115.8599853515625,-68.22222222222221,-11.995115995115995,-5.697680097680098
59:02.652,-1.69775390625,-0.166015625,-0.72021484375,-29.86907958984375,-4.6844482421875,-10.55145263671875,8.096703296703296,35.23565323565323,2.249084249084249,0.52099609375,1.8134765625,0.2255859375,5.80596923828125,40.46630859375,2.1209716796875,-21.741147741147742,-102.7081807081807,35.835409035409036,0.83203125,1.86865234375,-0.0732421875,-26.1383056640625,-7.6141357421875,-44.403076171875,-41.533089133089135,-23.24053724053724,43.93211233211233
59:03.627,-2.0166015625,-0.1953125,-1.23291015625,-27.6641845703125,-8.2550048828125,-6.805419921875,23.39047619047619,30.737484737484735,1.0495726495726496,0.17626953125,2.10009765625,0.2265625,-30.242919921875,12.176513671875,15.70892333984375,-19.791941391941393,-91.16288156288157,43.03247863247863,1.171875,1.6982421875,-0.20361328125,10.3912353515625,5.63812255859375,-3.72314453125,-41.533089133089135,-23.24053724053724,43.93211233211233
59:04.504,-0.79052734375,1.29638671875,0.083984375,-1.89971923828125,-221.61865234375,-92.83447265625,20.841514041514042,31.037362637362637,-1.1995115995115995,0.07275390625,1.97216796875,-0.17578125,11.58905029296875,-8.04901123046875,-28.89251708984375,-17.39291819291819,-91.01294261294261,36.88498168498168,0.9033203125,1.87451171875,-0.1826171875,-32.21893310546875,-38.0401611328125,-43.87664794921875,23.24053724053724,-2.848840048840049,102.4083028083028
59:05.382,-0.45654296875,1.93115234375,0.9638671875,36.2701416015625,-33.62274169921875,38.44451904296875,-5.397802197802197,29.088156288156288,-12.744810744810744,0.08984375,2.1015625,-0.07470703125,-15.0604248046875,-48.126220703125,22.369384765625,-19.941880341880342,-93.26202686202686,28.788278388278385,1.03271484375,1.74658203125,-0.3095703125,13.7481689453125,3.6773681640625,26.69525146484375,-9.296214896214895,-11.845177045177044,33.88620268620269
59:06.259,-0.45654296875,1.93115234375,0.9638671875,39.97802734375,-122.711181640625,4.49371337890625,-4.498168498168498,19.34212454212454,8.996336996336996,0.41064453125,1.95849609375,0.39453125,-15.43426513671875,-89.53857421875,-16.88385009765625,-19.19218559218559,-95.36117216117216,29.388034188034187,0.9658203125,2.03369140625,-0.26904296875,9.51385498046875,-72.57080078125,-50.16326904296875,-5.997557997557998,-5.397802197802197,11.545299145299145
59:07.234,-0.35107421875,2.0078125,0.27587890625,-4.79888916015625,48.614501953125,-19.0582275390625,-25.78949938949939,-7.197069597069596,-17.842735042735043,0.28271484375,2.138671875,0.16162109375,-12.6800537109375,12.61138916015625,19.98138427734375,-19.042246642246642,-105.85689865689865,8.846398046398047,1.26953125,1.69921875,-0.3427734375,13.092041015625,-5.2642822265625,-22.3236083984375,-18.142612942612942,13.344566544566543,-11.245421245421245
59:08.063,-0.4404296875,2.12451171875,0.46337890625,-4.79888916015625,48.614501953125,-19.0582275390625,-25.78949938949939,-7.197069597069596,-17.842735042735043,0.3095703125,2.10498046875,0.06689453125,11.72637939453125,50.811767578125,5.43975830078125,-26.83907203907204,-97.31037851037851,-9.895970695970696,1.130859375,1.91552734375,-0.87255859375,-37.48321533203125,249.99237060546875,6.56890869140625,-78.41807081807082,26.689133089133087,-18.59242979242979
59:08.941,-0.06201171875,2.31201171875,-0.19580078125,-36.834716796875,32.84454345703125,-54.46624755859375,-37.03492063492063,-1.1995115995115995,-51.279120879120875,0.4833984375,1.99169921875,0.3779296875,-2.4566650390625,27.9998779296875,2.05230712890625,-30.887423687423688,-100.6090354090354,-5.397802197802197,0.98486328125,1.87646484375,-0.26513671875,-11.52801513671875,2.52532958984375,-22.39990234375,-58.176312576312576,27.13894993894994,-3.598534798534798
59:09.915,-0.328125,2.01220703125,0.69677734375,-10.00213623046875,22.76611328125,-12.1612548828125,-45.431501831501826,0.7496947496947497,-38.38437118437118,0.4833984375,1.99169921875,0.3779296875,14.1143798828125,67.8253173828125,16.19720458984375,-22.49084249084249,-104.2075702075702,19.19218559218559,0.98486328125,1.87646484375,-0.26513671875,22.85003662109375,-46.48590087890625,20.416259765625,-49.479853479853475,16.64322344322344,0.5997557997557997
59:10.793,-0.64599609375,1.96728515625,-0.06494140625,4.79888916015625,120.27740478515625,25.00152587890625,-31.487179487179485,3.8984126984126983,-6.597313797313797,0.12158203125,2.02734375,0.34716796875,14.1143798828125,67.8253173828125,16.19720458984375,-23.99023199023199,-98.35995115995115,37.934554334554335,-0.68359375,2.5390625,-0.43701171875,22.85003662109375,-46.48590087890625,20.416259765625,-19.19218559218559,-24.29010989010989,41.832967032967034
59:11.719,-0.083984375,2.1435546875,0.35986328125,1.03759765625,64.02587890625,-7.5225830078125,-22.79072039072039,20.39169719169719,-0.5997557997557997,0.44970703125,1.9375,0.30517578125,-1.76239013671875,-13.28277587890625,-2.64739990234375,-23.99023199023199,-98.35995115995115,37.934554334554335,0.96142578125,1.947265625,-0.60546875,32.44781494140625,-59.7991943359375,-70.91522216796875,-47.83052503052503,-22.34090354090354,23.09059829059829
59:12.645,-0.37939453125,1.92529296875,0.1455078125,-20.53070068359375,18.37158203125,-15.9759521484375,-23.54041514041514,23.24053724053724,-20.99145299145299,0.419921875,1.83837890625,0.1103515625,-8.7127685546875,-8.4381103515625,5.04302978515625,-18.29255189255189,-85.31526251526252,35.53553113553114,1.16552734375,1.75927734375,-0.2041015625,-33.14971923828125,-11.9476318359375,10.3759765625,-47.83052503052503,-22.34090354090354,23.09059829059829
59:13.474,-0.4189453125,2.0,0.0888671875,3.28826904296875,-41.900634765625,-12.6953125,-18.59242979242979,19.34212454212454,-3.598534798534798,0.166015625,1.96044921875,0.47119140625,-19.29473876953125,-39.83306884765625,4.15802001953125,-17.093040293040293,-94.31159951159951,42.13284493284493,0.669921875,2.0244140625,-0.251953125,18.9666748046875,-21.64459228515625,5.157470703125,25.33968253968254,-1.3494505494505493,99.25958485958486
59:14.352,-0.25390625,1.92724609375,0.17333984375,25.2685546875,-60.98175048828125,3.85284423828125,-19.64200244200244,6.147496947496947,-10.195848595848595,0.57861328125,1.90625,0.32763671875,2.0751953125,-67.07000732421875,-13.5345458984375,-16.043467643467643,-96.56068376068376,24.589987789987788,1.02197265625,1.89404296875,-0.37060546875,-28.1219482421875,-85.052490234375,-40.85540771484375,-28.788278388278385,15.293772893772893,-20.54163614163614
59:15.278,-0.31787109375,1.908203125,-0.26611328125,-24.11651611328125,132.94219970703125,48.74420166015625,-31.936996336996337,-4.1982905982905985,-38.83418803418803,0.2021484375,1.94287109375,-0.00537109375,18.7225341796875,108.3984375,18.2647705078125,-23.09059829059829,-102.25836385836385,-0.8996336996336995,1.14111328125,1.70703125,-0.38525390625,25.20751953125,42.50335693359375,3.11279296875,-29.238095238095237,22.79072039072039,-27.288888888888888
59:16.107,-0.31787109375,1.908203125,-0.26611328125,-24.11651611328125,132.94219970703125,48.74420166015625,-33.73626373626374,-1.6493284493284492,-36.73504273504273,0.19873046875,2.14794921875,0.11962890625,-9.28497314453125,37.20855712890625,-9.429931640625,-23.09059829059829,-93.41196581196581,-2.998778998778999,1.13134765625,1.80029296875,-0.44921875,-47.18780517578125,27.99224853515625,90.057373046875,-36.58510378510378,0.5997557997557997,-13.644444444444444
59:16.984,-0.2998046875,2.37646484375,0.01708984375,-7.02667236328125,22.2930908203125,11.0321044921875,-33.73626373626374,-1.6493284493284492,-36.73504273504273,0.19873046875,2.14794921875,0.11962890625,-12.14599609375,-30.00640869140625,3.265380859375,-19.19218559218559,-104.95726495726495,28.03858363858364,1.17578125,1.68408203125,-0.22119140625,-17.50946044921875,-9.796142578125,0.08392333984375,-30.887423687423688,-10.345787545787545,2.548962148962149
59:17.960,-0.228515625,2.15283203125,-0.10107421875,-32.81402587890625,-39.34478759765625,-43.73931884765625,-24.739926739926737,2.848840048840049,0.0,0.45947265625,1.8603515625,0.33251953125,-15.67840576171875,-44.12841796875,-11.66534423828125,-14.544078144078144,-103.45787545787546,37.18485958485958,1.17578125,1.68408203125,-0.22119140625,15.99884033203125,71.83837890625,25.3753662109375,5.397802197802197,-6.297435897435897,19.49206349206349
59:18.886,-0.4169921875,2.265625,-0.21484375,4.72259521484375,-70.3887939453125,37.63580322265625,-16.343345543345542,7.047130647130647,-1.0495726495726496,0.08642578125,2.103515625,0.14990234375,-23.5137939453125,-23.7579345703125,5.56182861328125,-20.09181929181929,-102.85811965811965,9.596092796092796,0.75341796875,2.3740234375,-0.453125,5.14984130859375,-0.6103515625,-9.28497314453125,-14.544078144078144,30.737484737484735,-19.941880341880342
59:19.812,-0.05517578125,2.091796875,0.24560546875,4.87518310546875,-12.58087158203125,31.8603515625,-23.24053724053724,-0.8996336996336995,-19.34212454212454,0.640625,1.9423828125,0.2666015625,-23.5137939453125,-23.7579345703125,5.56182861328125,-20.841514041514042,-103.3079365079365,0.14993894993894993,1.0859375,1.72412109375,-0.466796875,5.14984130859375,-0.6103515625,-9.28497314453125,-10.495726495726496,36.88498168498168,-7.347008547008547
59:20.689,-0.87548828125,1.50048828125,0.46240234375,-8.11767578125,38.35296630859375,-23.956298828125,-24.739926739926737,-7.197069597069596,-32.08693528693529,0.75830078125,1.75048828125,0.29296875,3.814697265625,22.796630859375,-8.5906982421875,-20.841514041514042,-103.3079365079365,0.14993894993894993,0.85791015625,1.92431640625,-0.25927734375,-8.7432861328125,-6.59942626953125,-40.77911376953125,-10.495726495726496,36.88498168498168,-7.347008547008547
59:21.567,-1.48876953125,1.42578125,-0.244140625,-20.5841064453125,22.77374267578125,-5.157470703125,-20.54163614163614,7.796825396825397,1.3494505494505493,0.046875,2.037109375,0.2236328125,-1.3885498046875,24.1851806640625,8.3465576171875,-16.49328449328449,-109.9052503052503,5.397802197802197,1.22509765625,1.66748046875,-0.24951171875,29.86907958984375,-7.34710693359375,-31.25762939453125,-8.696459096459096,34.336019536019535,-10.195848595848595
59:22.493,-1.3466796875,1.90576171875,-0.24267578125,45.5780029296875,-157.52410888671875,86.090087890625,-21.44126984126984,17.842735042735043,-4.648107448107448,0.607421875,1.97412109375,0.19873046875,-22.3846435546875,-34.73663330078125,-7.232666015625,-22.34090354090354,-106.9064713064713,10.945543345543346,0.95654296875,1.82177734375,-0.6142578125,20.7977294921875,-47.2412109375,-41.22161865234375,-49.92967032967033,23.39047619047619,-41.98290598290598
59:23.419,-0.42236328125,1.904296875,0.212890625,-13.427734375,-44.1436767578125,-12.62664794921875,-28.338461538461537,8.096703296703296,-1.799267399267399,0.0888671875,1.830078125,0.28662109375,-17.11273193359375,-15.98358154296875,6.91986083984375,-24.44004884004884,-108.85567765567765,5.697680097680098,1.2578125,1.58544921875,-0.3388671875,-5.59234619140625,-24.7344970703125,6.0882568359375,-50.979242979242976,37.934554334554335,-33.88620268620269
59:24.248,-0.42236328125,1.904296875,0.212890625,15.57159423828125,-14.56451416015625,-9.66644287109375,-36.58510378510378,-1.3494505494505493,-47.230769230769226,0.3291015625,1.8203125,0.3271484375,-4.61578369140625,-8.087158203125,-23.74267578125,-28.188522588522588,-96.26080586080586,-7.347008547008547,-0.25244140625,1.9638671875,-0.7744140625,-7.0343017578125,-145.4925537109375,-22.91107177734375,-89.96336996336996,29.987789987789988,-2.548962148962149
59:25.370,-0.67919921875,2.1357421875,0.30224609375,21.6064453125,44.7540283203125,-35.491943359375,-36.73504273504273,17.39291819291819,-59.07594627594627,0.38134765625,1.90234375,0.2099609375,3.94439697265625,35.5987548828125,9.88006591796875,-30.137728937728937,-85.16532356532356,-0.4498168498168498,1.11767578125,1.84375,-0.20361328125,24.11651611328125,0.45013427734375,-4.15802001953125,-74.36971916971916,41.98290598290598,23.99023199023199
59:26.198,-0.67919921875,2.1357421875,0.30224609375,5.94329833984375,-65.3228759765625,-17.242431640625,-38.98412698412698,5.847619047619047,-61.924786324786325,0.46240234375,2.00634765625,0.28173828125,0.42724609375,-6.30950927734375,-0.64849853515625,-29.687912087912085,-87.26446886446887,-3.598534798534798,1.203125,1.71875,-0.05615234375,-17.8985595703125,12.6800537109375,0.83160400390625,-68.37216117216117,35.23565323565323,4.348229548229548
59:27.173,-0.1015625,2.076171875,0.0849609375,5.94329833984375,-65.3228759765625,-17.242431640625,-36.73504273504273,2.0991452991452992,-54.577777777777776,0.20458984375,2.0595703125,0.34765625,-14.50347900390625,23.81134033203125,10.9100341796875,-28.488400488400487,-97.46031746031746,-5.847619047619047,1.279296875,1.69677734375,-0.21533203125,30.32684326171875,8.41522216796875,-6.98089599609375,-68.37216117216117,34.485958485958484,1.799267399267399
59:28.099,-0.46923828125,2.4072265625,0.13330078125,3.74603271484375,-1.97601318359375,-3.95965576171875,-30.287667887667887,-11.245421245421245,-32.98656898656898,0.18115234375,2.09912109375,-0.0009765625,-1.88446044921875,-14.8773193359375,4.79888916015625,-25.639560439560437,-103.6078144078144,-2.399023199023199,0.310546875,2.04345703125,-0.2900390625,22.63641357421875,96.771240234375,29.73175048828125,-80.81709401709402,10.495726495726496,-52.778510378510376
59:28.928,-0.23828125,1.9677734375,-0.166015625,-22.40753173828125,-6.1492919921875,-20.34759521484375,-30.287667887667887,-11.245421245421245,-32.98656898656898,0.18115234375,2.09912109375,-0.0009765625,14.67132568359375,23.62060546875,15.17486572265625,-29.238095238095237,-100.3091575091575,-8.996336996336996,0.310546875,2.04345703125,-0.2900390625,-32.6080322265625,-14.73236083984375,18.47076416015625,-82.46642246642246,28.638339438339436,-40.78339438339438
59:29.806,-0.11767578125,2.2880859375,0.2939453125,18.94378662109375,108.61968994140625,11.48223876953125,-41.98290598290598,-1.1995115995115995,-47.53064713064713,0.5654296875,2.25537109375,0.3984375,14.67132568359375,23.62060546875,15.17486572265625,-24.44004884004884,-108.4058608058608,11.695238095238095,1.09375,1.78369140625,-0.1845703125,-32.6080322265625,-14.73236083984375,18.47076416015625,-73.32014652014652,-2.548962148962149,-40.63345543345543
59:30.683,-0.34814453125,2.0546875,0.0849609375,22.27783203125,-28.0303955078125,13.885498046875,-36.73504273504273,-5.697680097680098,-18.142612942612942,0.083984375,1.80810546875,0.2138671875,-7.2021484375,-11.0626220703125,-3.56292724609375,-24.44004884004884,-108.4058608058608,11.695238095238095,0.99853515625,1.59326171875,-0.39208984375,-6.3629150390625,-88.79852294921875,-42.82379150390625,-73.32014652014652,-2.548962148962149,-40.63345543345543
59:31.609,-0.1845703125,1.7783203125,0.18359375,12.6953125,-102.11181640625,16.448974609375,-32.536752136752135,-9.746031746031745,-34.186080586080585,0.4736328125,1.89892578125,0.24267578125,-4.69970703125,-65.91796875,1.5869140625,-25.33968253968254,-104.5074481074481,-0.7496947496947497,1.29443359375,1.6123046875,-0.2470703125,-20.31707763671875,-4.2572021484375,12.115478515625,-41.38315018315018,35.23565323565323,-17.992673992673993
59:32.438,-0.1259765625,2.52685546875,0.33251953125,1.93023681640625,-0.9765625,19.05059814453125,-34.036141636141636,1.4993894993894994,-48.58021978021978,0.5390625,1.9521484375,0.29345703125,-13.81683349609375,48.5687255859375,10.27679443359375,-26.98901098901099,-95.66105006105006,-5.847619047619047,0.9228515625,1.97998046875,-0.2744140625,24.0478515625,20.89691162109375,-70.9075927734375,-47.83052503052503,35.53553113553114,-31.637118437118435
59:33.316,-0.10888671875,1.94921875,-0.048828125,-54.4281005859375,3.0517578125,-56.21337890625,-30.737484737484735,-4.048351648351648,-48.88009768009768,0.29638671875,1.8681640625,0.12060546875,-17.3797607421875,26.458740234375,-1.68609619140625,-26.689133089133087,-95.96092796092796,-8.396581196581197,0.97509765625,1.8232421875,-0.40185546875,-9.429931640625,-3.50189208984375,10.3607177734375,-37.03492063492063,43.18241758241758,-10.345787545787545
59:34.193,-0.10888671875,1.94921875,-0.048828125,1.22833251953125,-2.5482177734375,-15.7470703125,-37.33479853479853,-7.347008547008547,-44.53186813186813,0.1416015625,1.95947265625,0.28955078125,-0.45013427734375,11.92474365234375,1.434326171875,-27.288888888888888,-100.15921855921856,-6.447374847374848,0.93115234375,2.5380859375,-0.638671875,47.821044921875,28.564453125,-3.33404541015625,-85.61514041514042,22.34090354090354,-45.73137973137973
59:35.266,-0.26904296875,1.96484375,-0.19287109375,-0.244140625,0.23651123046875,2.3345947265625,-40.48351648351648,-2.0991452991452992,-44.23199023199023,0.71484375,1.8916015625,-0.3310546875,-5.74493408203125,2.34222412109375,0.48828125,-32.836630036630034,-99.25958485958486,-11.845177045177044,1.23779296875,1.65087890625,-0.2880859375,-6.0577392578125,-4.150390625,0.152587890625,-84.11575091575091,8.246642246642246,-16.793162393162394
59:36.192,0.25146484375,1.9794921875,-0.05810546875,1.8463134765625,-92.6513671875,18.50128173828125,-36.58510378510378,-12.744810744810744,-38.83418803418803,0.0771484375,2.3740234375,-0.00634765625,-9.92584228515625,-76.37786865234375,-13.0462646484375,-22.94065934065934,-109.75531135531135,-14.843956043956043,0.927734375,2.142578125,0.0400390625,-20.59173583984375,-93.23883056640625,-51.03302001953125,-84.7155067155067,2.249084249084249,-25.78949938949939
59:37.069,-0.6337890625,2.11572265625,-0.2861328125,1.8463134765625,-92.6513671875,18.50128173828125,-36.58510378510378,-12.744810744810744,-38.83418803418803,0.58935546875,1.892578125,0.44189453125,-17.37213134765625,-17.5018310546875,2.11334228515625,-30.887423687423688,-97.61025641025641,-19.34212454212454,1.01513671875,1.7529296875,-0.359375,4.28009033203125,-3.753662109375,12.359619140625,-94.91135531135531,24.14017094017094,-16.793162393162394
59:37.898,-0.6064453125,0.84130859375,1.4736328125,-4.913330078125,51.116943359375,-48.7213134765625,-39.583882783882785,-0.7496947496947497,-55.027594627594624,0.58935546875,1.892578125,0.44189453125,12.75634765625,11.05499267578125,-16.02935791015625,-31.787057387057384,-92.96214896214896,-5.547741147741148,1.01513671875,1.7529296875,-0.359375,41.84722900390625,12.35198974609375,-109.32159423828125,-81.41684981684982,41.38315018315018,12.294993894993894
59:38.824,-0.4951171875,2.5810546875,0.3046875,59.2041015625,72.906494140625,12.237548828125,-19.791941391941393,25.639560439560437,0.0,0.4560546875,1.89013671875,0.27099609375,12.75634765625,11.05499267578125,-16.02935791015625,-26.689133089133087,-88.91379731379732,-2.399023199023199,0.259765625,2.41650390625,-0.5166015625,-6.27899169921875,25.177001953125,33.14208984375,-65.52332112332113,51.57899877899878,29.83785103785104
59:39.751,-0.54443359375,2.36865234375,-0.126953125,36.53717041015625,89.0350341796875,70.9991455078125,-37.784615384615385,4.1982905982905985,-60.425396825396824,0.41943359375,2.1884765625,0.228515625,-3.1890869140625,1.5716552734375,-0.5950927734375,-26.389255189255188,-102.55824175824175,-3.4485958485958483,1.3408203125,1.60498046875,-0.16748046875,-13.11492919921875,45.73822021484375,42.6025390625,-41.08327228327228,16.343345543345542,-22.94065934065934
59:40.823,-0.2705078125,2.11572265625,0.05615234375,-37.91046142578125,56.90765380859375,-40.24505615234375,-34.336019536019535,-6.897191697191697,-32.386813186813185,0.0830078125,1.94482421875,0.16162109375,-14.24407958984375,8.7127685546875,10.9405517578125,-22.19096459096459,-106.75653235653235,14.993894993894994,1.3408203125,1.60498046875,-0.16748046875,-0.67901611328125,-15.49530029296875,-4.7760009765625,-43.93211233211233,6.597313797313797,-24.739926739926737
59:41.847,-0.3291015625,1.91748046875,-0.00439453125,-51.422119140625,42.1905517578125,-43.73931884765625,-24.589987789987788,-4.1982905982905985,-11.845177045177044,0.3876953125,1.96826171875,0.10009765625,-15.1519775390625,5.37109375,-9.8876953125,-20.39169719169719,-107.806105006105,25.639560439560437,1.20849609375,1.64453125,-0.37890625,-68.29071044921875,202.47650146484375,38.30718994140625,-26.08937728937729,8.996336996336996,-30.737484737484735
59:42.773,-0.2197265625,2.21337890625,-0.03125,-28.66363525390625,-26.275634765625,-81.390380859375,-21.29133089133089,-1.799267399267399,-1.0495726495726496,0.20166015625,1.876953125,-0.06201171875,17.2576904296875,81.9549560546875,8.53729248046875,-25.03980463980464,-106.75653235653235,7.946764346764346,0.56396484375,1.83740234375,0.068359375,-2.288818359375,8.32366943359375,-13.8092041015625,-55.62735042735043,24.88986568986569,-41.23321123321123
59:43.797,-0.44921875,1.96044921875,0.009765625,39.6575927734375,104.86602783203125,22.19390869140625,-35.835409035409036,-5.247863247863248,-19.34212454212454,0.3994140625,1.9365234375,0.16796875,17.2576904296875,81.9549560546875,8.53729248046875,-23.54041514041514,-100.9089133089133,35.38559218559219,1.00830078125,1.7744140625,-0.32861328125,-2.288818359375,8.32366943359375,-13.8092041015625,-61.47496947496947,-16.793162393162394,0.29987789987789987
