time,hand_accelerometer_x,hand_accelerometer_y,hand_accelerometer_z,hand_gyroscope_x,hand_gyroscope_y,hand_gyroscope_z,hand_magnetometer_x,hand_magnetometer_y,hand_magnetometer_z,ankle_accelerometer_x,ankle_accelerometer_y,ankle_accelerometer_z,ankle_gyroscope_x,ankle_gyroscope_y,ankle_gyroscope_z,ankle_magnetometer_x,ankle_magnetometer_y,ankle_magnetometer_z,chest_accelerometer_x,chest_accelerometer_y,chest_accelerometer_z,chest_gyroscope_x,chest_gyroscope_y,chest_gyroscope_z,chest_magnetometer_x,chest_magnetometer_y,chest_magnetometer_z
43:41.624,-0.3564453125,0.6201171875,1.90673828125,-1.12152099609375,-0.43487548828125,0.70953369140625,-13.944322344322345,33.28644688644688,-10.795604395604395,0.052734375,2.033203125,-0.064453125,-3.25775146484375,-0.38909912109375,0.03814697265625,-8.996336996336996,-82.76630036630036,15.593650793650793,0.92822265625,1.84521484375,-0.216796875,-0.9613037109375,0.80108642578125,2.00653076171875,-27.738705738705736,38.83418803418803,30.437606837606836
43:42.453,-0.40771484375,0.78076171875,1.84130859375,-0.5645751953125,-0.90789794921875,-3.997802734375,-12.594871794871795,33.58632478632479,-8.696459096459096,0.11328125,2.02392578125,-0.12841796875,-2.5634765625,-0.3204345703125,5.89752197265625,-8.096703296703296,-81.41684981684982,15.743589743589743,0.91552734375,1.84375,-0.2060546875,-0.48828125,0.61798095703125,1.89208984375,-28.338461538461537,39.13406593406593,30.887423687423688
43:43.233,-0.40771484375,0.78076171875,1.84130859375,-16.693115234375,16.9219970703125,19.61517333984375,-8.246642246642246,32.386813186813185,-10.645665445665445,0.12939453125,2.03759765625,-0.1796875,-0.11444091796875,-3.60107421875,-1.8463134765625,-7.347008547008547,-81.41684981684982,15.743589743589743,0.92919921875,1.84423828125,-0.22314453125,-1.7547607421875,0.9613037109375,1.22833251953125,-27.738705738705736,39.13406593406593,32.536752136752135
43:44.061,-0.2412109375,0.955078125,1.80615234375,-16.693115234375,16.9219970703125,19.61517333984375,-8.246642246642246,32.386813186813185,-10.645665445665445,0.12939453125,2.03759765625,-0.1796875,2.8228759765625,-1.251220703125,-1.47247314453125,-8.096703296703296,-82.16654456654456,16.49328449328449,0.91162109375,1.84130859375,-0.20849609375,-0.93841552734375,0.7781982421875,1.9073486328125,-27.288888888888888,36.285225885225884,31.187301587301587
43:44.890,-0.21533203125,0.60791015625,1.90869140625,1.62506103515625,3.31878662109375,10.26153564453125,-17.54285714285714,33.88620268620269,-8.096703296703296,0.14501953125,2.0205078125,-0.0888671875,-4.41741943359375,2.8533935546875,1.3885498046875,-7.496947496947497,-83.51599511599511,15.893528693528692,0.91162109375,1.84130859375,-0.20849609375,-1.15966796875,0.81634521484375,1.68609619140625,-27.738705738705736,37.784615384615385,30.437606837606836
43:45.768,-0.2919921875,0.27783203125,2.0673828125,-2.74658203125,-5.8441162109375,-3.60107421875,-8.696459096459096,30.737484737484735,-7.796825396825397,0.1357421875,2.01220703125,-0.17138671875,-4.41741943359375,2.8533935546875,1.3885498046875,-7.496947496947497,-83.51599511599511,15.893528693528692,0.9248046875,1.84228515625,-0.20947265625,-1.15966796875,0.81634521484375,1.68609619140625,-27.738705738705736,37.784615384615385,30.437606837606836
43:46.548,-0.31689453125,0.73681640625,1.828125,2.2430419921875,-0.885009765625,-19.195556640625,-2.548962148962149,28.03858363858364,-4.498168498168498,0.1083984375,2.033203125,-0.1787109375,-2.75421142578125,1.59454345703125,2.2430419921875,-8.396581196581197,-82.61636141636141,17.093040293040293,0.90576171875,1.84765625,-0.20068359375,-1.03759765625,0.81634521484375,1.89208984375,-28.93821733821734,37.934554334554335,32.08693528693529
43:47.425,-0.2490234375,0.9921875,1.80322265625,1.52587890625,2.5177001953125,15.38848876953125,-15.443711843711844,33.88620268620269,-8.696459096459096,0.13720703125,2.03515625,-0.15673828125,-3.3721923828125,-6.30950927734375,1.6632080078125,-7.347008547008547,-83.66593406593407,16.043467643467643,0.9130859375,1.837890625,-0.20751953125,-1.5106201171875,0.6866455078125,2.0294189453125,-27.288888888888888,36.285225885225884,32.236874236874236
43:48.205,-0.2490234375,0.9921875,1.80322265625,1.52587890625,2.5177001953125,15.38848876953125,-17.39291819291819,35.835409035409036,-6.597313797313797,0.134765625,2.02734375,-0.12060546875,-0.2593994140625,0.274658203125,1.4495849609375,-7.646886446886446,-82.91623931623931,15.443711843711844,0.916015625,1.84375,-0.2060546875,-1.8310546875,1.739501953125,0.54931640625,-27.438827838827837,37.934554334554335,31.637118437118435
43:49.131,-0.27001953125,0.55322265625,1.99658203125,-0.43487548828125,0.457763671875,-3.662109375,-0.8996336996336995,27.588766788766787,-1.9492063492063492,0.142578125,2.02294921875,-0.09033203125,-3.23486328125,1.94549560546875,0.885009765625,-6.297435897435897,-82.16654456654456,15.443711843711844,0.91650390625,1.83935546875,-0.2080078125,-0.98419189453125,1.2359619140625,1.434326171875,-28.788278388278385,37.784615384615385,33.28644688644688
43:49.911,-0.2841796875,0.78955078125,1.83935546875,-3.1890869140625,5.14984130859375,-14.79339599609375,-0.8996336996336995,27.588766788766787,-1.9492063492063492,0.142578125,2.02294921875,-0.09033203125,-3.23486328125,1.94549560546875,0.885009765625,-7.646886446886446,-82.91623931623931,16.043467643467643,0.91650390625,1.83935546875,-0.2080078125,-0.98419189453125,1.2359619140625,1.434326171875,-26.98901098901099,38.53431013431013,32.236874236874236
43:50.691,-0.04638671875,0.92919921875,1.88525390625,2.4871826171875,-1.52587890625,23.67401123046875,-10.195848595848595,31.037362637362637,-10.795604395604395,0.17529296875,2.052734375,-0.1171875,-0.54931640625,-3.5858154296875,0.29754638671875,-7.646886446886446,-82.91623931623931,16.043467643467643,0.91796875,1.845703125,-0.203125,-1.220703125,0.03814697265625,0.8697509765625,-26.98901098901099,38.53431013431013,32.236874236874236
43:51.471,-0.24755859375,0.46923828125,1.98583984375,2.73895263671875,-10.5133056640625,1.617431640625,-21.89108669108669,29.088156288156288,-10.945543345543346,0.16357421875,2.03857421875,-0.1044921875,-1.2359619140625,1.9683837890625,0.81634521484375,-9.596092796092796,-82.76630036630036,17.692796092796094,0.90380859375,1.853515625,-0.18603515625,-1.4801025390625,0.9307861328125,1.74713134765625,-26.83907203907204,38.68424908424908,31.637118437118435
43:52.300,-0.24755859375,0.46923828125,1.98583984375,-3.204345703125,10.19287109375,-11.016845703125,-6.747252747252747,27.738705738705736,-6.897191697191697,0.13720703125,2.04052734375,-0.203125,-5.92041015625,8.5601806640625,-1.97601318359375,-7.197069597069596,-83.51599511599511,16.64322344322344,0.85693359375,1.87939453125,-0.15380859375,-3.79180908203125,2.0751953125,-1.30462646484375,-27.288888888888888,35.985347985347985,31.936996336996337
43:53.080,-0.2080078125,0.77587890625,1.8623046875,-3.204345703125,10.19287109375,-11.016845703125,-6.747252747252747,27.738705738705736,-6.897191697191697,0.12060546875,2.03759765625,-0.14208984375,1.739501953125,-2.98309326171875,1.36566162109375,-7.496947496947497,-82.31648351648352,15.593650793650793,0.88525390625,1.86767578125,-0.17626953125,-1.251220703125,1.0223388671875,1.89971923828125,-26.539194139194137,36.73504273504273,31.936996336996337
43:53.909,-0.2470703125,0.69775390625,1.93310546875,-4.2877197265625,7.83538818359375,27.73284912109375,-20.39169719169719,30.737484737484735,-9.746031746031745,0.12060546875,2.03759765625,-0.14208984375,1.739501953125,-2.98309326171875,1.36566162109375,-8.996336996336996,-82.76630036630036,15.143833943833943,0.88525390625,1.86767578125,-0.17626953125,-1.6937255859375,0.96893310546875,1.4801025390625,-27.738705738705736,37.33479853479853,31.187301587301587
43:54.836,-0.26025390625,0.365234375,2.04638671875,1.678466796875,-4.21142578125,-3.74603271484375,-16.043467643467643,32.08693528693529,-16.64322344322344,0.1337890625,2.0107421875,-0.1904296875,-3.4027099609375,2.92205810546875,1.53350830078125,-8.996336996336996,-82.76630036630036,15.143833943833943,0.88720703125,1.859375,-0.18798828125,-1.6937255859375,0.96893310546875,1.4801025390625,-27.738705738705736,37.33479853479853,31.187301587301587
43:55.615,-0.248046875,0.81396484375,1.85009765625,-3.10516357421875,0.66375732421875,-2.72369384765625,-9.596092796092796,28.03858363858364,-7.946764346764346,0.14599609375,2.0458984375,-0.1640625,-6.98089599609375,3.07464599609375,3.173828125,-6.747252747252747,-83.06617826617827,16.193406593406593,0.88623046875,1.85986328125,-0.18310546875,-1.0223388671875,0.63323974609375,2.28118896484375,-28.638339438339436,38.234432234432234,32.08693528693529
43:56.493,-0.18115234375,1.1279296875,1.7197265625,0.9613037109375,4.38690185546875,16.47186279296875,-17.842735042735043,30.437606837606836,-16.943101343101343,0.15087890625,2.05712890625,-0.12353515625,0.9765625,-8.55255126953125,0.1983642578125,-7.197069597069596,-83.51599511599511,16.64322344322344,0.90380859375,1.86181640625,-0.193359375,-1.35040283203125,0.35858154296875,2.29644775390625,-27.438827838827837,38.68424908424908,32.386813186813185
43:57.273,-0.18115234375,1.1279296875,1.7197265625,2.8839111328125,-21.06475830078125,3.7384033203125,-28.638339438339436,29.83785103785104,-14.394139194139193,0.14697265625,2.03271484375,-0.1435546875,0.00762939453125,-0.22125244140625,0.84686279296875,-8.396581196581197,-83.96581196581197,14.993894993894994,0.884765625,1.86083984375,-0.18701171875,-1.04522705078125,0.75531005859375,2.46429443359375,-26.98901098901099,37.784615384615385,32.98656898656898
43:58.101,-0.23828125,0.47412109375,1.9306640625,2.8839111328125,-21.06475830078125,3.7384033203125,-8.396581196581197,28.638339438339436,-9.146275946275946,0.162109375,2.04296875,-0.150390625,-6.3018798828125,1.68609619140625,2.3345947265625,-9.146275946275946,-82.91623931623931,16.49328449328449,0.8935546875,1.85107421875,-0.18505859375,-1.312255859375,1.25885009765625,1.0833740234375,-27.738705738705736,38.084493284493284,31.187301587301587
43:59.076,-0.3359375,0.60400390625,1.89208984375,-0.1373291015625,3.8604736328125,-2.43377685546875,-8.396581196581197,28.638339438339436,-9.146275946275946,0.14892578125,2.02734375,-0.2470703125,-5.43975830078125,-2.06756591796875,0.55694580078125,-6.747252747252747,-83.51599511599511,16.64322344322344,0.90478515625,1.84912109375,-0.1865234375,-0.7171630859375,0.37384033203125,2.66265869140625,-28.93821733821734,38.234432234432234,29.987789987789988
43:59.905,-0.099609375,1.2333984375,1.6962890625,-14.16778564453125,8.758544921875,9.97161865234375,-12.444932844932845,30.587545787545785,-14.094261294261294,0.14892578125,2.02734375,-0.2470703125,1.06048583984375,-1.25885009765625,-0.37384033203125,-7.796825396825397,-82.01660561660562,15.893528693528692,0.88525390625,1.85791015625,-0.18115234375,-1.2664794921875,0.457763671875,1.96075439453125,-27.738705738705736,38.83418803418803,32.536752136752135
44:00.881,-0.43994140625,0.689453125,1.85009765625,3.85284423828125,-25.81024169921875,13.2293701171875,-28.03858363858364,32.08693528693529,-12.444932844932845,0.13720703125,2.02490234375,-0.1708984375,1.06048583984375,-1.25885009765625,-0.37384033203125,-9.446153846153846,-84.4156288156288,16.793162393162394,0.88525390625,1.85791015625,-0.18115234375,-1.2664794921875,0.457763671875,1.96075439453125,-28.188522588522588,38.234432234432234,31.037362637362637
44:01.660,-0.38916015625,0.453125,1.96484375,-3.33404541015625,5.523681640625,0.61798095703125,-16.043467643467643,29.987789987789988,-15.593650793650793,0.15380859375,2.02783203125,-0.17431640625,-5.401611328125,1.50299072265625,2.06756591796875,-9.446153846153846,-84.4156288156288,16.793162393162394,0.8837890625,1.8623046875,-0.185546875,-2.09808349609375,1.7547607421875,0.9002685546875,-28.188522588522588,38.234432234432234,31.037362637362637
44:02.587,-0.17919921875,1.05517578125,1.775390625,-6.00433349609375,8.9874267578125,-13.885498046875,-11.245421245421245,31.037362637362637,-11.845177045177044,0.1484375,2.02587890625,-0.20849609375,-6.09588623046875,0.48065185546875,2.57110595703125,-7.646886446886446,-81.86666666666666,16.49328449328449,0.8916015625,1.86474609375,-0.18359375,-0.885009765625,0.885009765625,2.06756591796875,-27.288888888888888,37.784615384615385,31.187301587301587
44:03.415,-0.1181640625,0.90234375,1.86279296875,1.0833740234375,-3.45611572265625,20.2484130859375,-26.98901098901099,33.28644688644688,-13.494505494505495,0.14013671875,2.03955078125,-0.14111328125,0.77056884765625,-4.241943359375,-0.396728515625,-7.347008547008547,-81.86666666666666,16.49328449328449,0.88916015625,1.86376953125,-0.18212890625,-0.99945068359375,0.7171630859375,1.7852783203125,-26.98901098901099,38.53431013431013,31.936996336996337
44:04.293,-0.1181640625,0.90234375,1.86279296875,2.29644775390625,5.462646484375,-9.89532470703125,-29.388034188034187,32.386813186813185,-15.443711843711844,0.1923828125,2.037109375,-0.1328125,-1.2359619140625,2.1820068359375,0.5340576171875,-8.246642246642246,-81.26691086691086,16.943101343101343,0.888671875,1.87158203125,-0.1728515625,-1.56402587890625,1.03759765625,1.6937255859375,-28.03858363858364,37.33479853479853,31.487179487179485
44:05.122,-0.35400390625,0.54833984375,1.89794921875,2.29644775390625,5.462646484375,-9.89532470703125,-7.796825396825397,26.98901098901099,-8.246642246642246,0.17138671875,2.0390625,-0.15771484375,-6.06536865234375,1.77001953125,3.448486328125,-8.396581196581197,-82.91623931623931,16.043467643467643,0.892578125,1.86328125,-0.19287109375,-1.1749267578125,1.007080078125,1.678466796875,-26.389255189255188,38.68424908424908,32.686691086691084
44:05.901,-0.3388671875,0.62744140625,1.9130859375,-3.27301025390625,4.14276123046875,-7.75909423828125,-7.796825396825397,26.98901098901099,-8.246642246642246,0.17138671875,2.0390625,-0.15771484375,-6.06536865234375,1.77001953125,3.448486328125,-9.296214896214895,-80.21733821733821,15.143833943833943,0.892578125,1.86328125,-0.19287109375,-1.1749267578125,1.007080078125,1.678466796875,-28.788278388278385,38.83418803418803,32.536752136752135
44:06.730,0.01611328125,0.69677734375,2.09716796875,-11.53564453125,1.33514404296875,2.86102294921875,-17.39291819291819,30.137728937728937,-14.694017094017093,0.162109375,2.0283203125,-0.205078125,-4.09698486328125,-3.04412841796875,2.1820068359375,-9.296214896214895,-80.21733821733821,15.143833943833943,0.8779296875,1.88818359375,-0.15478515625,-4.58526611328125,-1.79290771484375,1.09100341796875,-28.788278388278385,38.83418803418803,32.536752136752135
44:07.608,-0.31494140625,0.7568359375,1.91064453125,-4.29534912109375,3.1280517578125,17.34161376953125,-29.987789987789988,31.637118437118435,-11.995115995115995,0.1513671875,2.0302734375,-0.150390625,1.39617919921875,-1.678466796875,-0.99945068359375,-7.796825396825397,-84.56556776556776,15.893528693528692,0.8818359375,1.86572265625,-0.15576171875,-1.50299072265625,0.213623046875,2.57110595703125,-28.03858363858364,38.084493284493284,31.487179487179485
44:08.437,-0.36572265625,0.4462890625,1.98681640625,-0.64849853515625,14.06097412109375,-5.60760498046875,-19.791941391941393,32.386813186813185,-16.043467643467643,0.13720703125,2.02099609375,-0.1044921875,-7.13348388671875,4.18853759765625,0.43487548828125,-6.597313797313797,-83.66593406593407,17.842735042735043,0.88134765625,1.86328125,-0.16455078125,-0.96893310546875,1.28936767578125,1.57928466796875,-28.93821733821734,38.68424908424908,34.186080586080585
44:09.412,0.1318359375,0.9150390625,1.79248046875,-18.00537109375,31.21185302734375,-6.46209716796875,-4.798046398046398,29.687912087912085,-5.397802197802197,0.1484375,2.0341796875,-0.22216796875,-4.15802001953125,-2.31170654296875,1.1749267578125,-9.446153846153846,-83.66593406593407,15.743589743589743,0.88330078125,1.86962890625,-0.1708984375,-1.220703125,1.03759765625,1.18255615234375,-27.288888888888888,36.285225885225884,31.487179487179485
44:10.192,0.1318359375,0.9150390625,1.79248046875,-18.00537109375,31.21185302734375,-6.46209716796875,-30.887423687423688,30.737484737484735,-9.446153846153846,0.1611328125,2.0390625,-0.1123046875,1.39617919921875,-2.3040771484375,-0.80108642578125,-8.096703296703296,-82.91623931623931,14.694017094017093,0.87353515625,1.86962890625,-0.15576171875,-0.885009765625,0.457763671875,2.23541259765625,-27.288888888888888,38.084493284493284,31.936996336996337
44:11.020,-0.30615234375,0.42333984375,1.82373046875,-3.42559814453125,2.03704833984375,6.9580078125,-30.887423687423688,30.737484737484735,-9.446153846153846,0.162109375,2.0439453125,-0.0927734375,-7.4310302734375,4.364013671875,2.25830078125,-7.796825396825397,-83.06617826617827,15.893528693528692,0.87060546875,1.880859375,-0.17578125,-0.946044921875,1.04522705078125,1.861572265625,-26.08937728937729,37.934554334554335,32.386813186813185
44:11.947,-0.416015625,0.51220703125,1.923828125,-3.60870361328125,-1.373291015625,-2.9296875,-10.195848595848595,29.687912087912085,-11.845177045177044,0.162109375,2.0439453125,-0.0927734375,-7.4310302734375,4.364013671875,2.25830078125,-5.997557997557998,-83.51599511599511,16.64322344322344,0.87060546875,1.880859375,-0.17578125,-0.946044921875,1.04522705078125,1.861572265625,-28.03858363858364,38.084493284493284,32.536752136752135
44:12.727,-0.0166015625,0.85791015625,1.90283203125,-3.60870361328125,10.36834716796875,-10.85662841796875,-8.396581196581197,28.93821733821734,-11.845177045177044,0.16064453125,2.04248046875,-0.166015625,-2.9144287109375,-4.1351318359375,1.3427734375,-5.997557997557998,-83.51599511599511,16.64322344322344,0.873046875,1.87548828125,-0.162109375,-1.0528564453125,0.6866455078125,1.739501953125,-28.03858363858364,38.084493284493284,32.536752136752135
44:13.507,-0.34521484375,0.53466796875,2.01708984375,3.9520263671875,-9.3841552734375,-3.18145751953125,-25.489621489621488,32.386813186813185,-14.094261294261294,0.16162109375,2.041015625,-0.15380859375,-1.983642578125,0.92315673828125,-0.48828125,-9.895970695970696,-82.91623931623931,17.54285714285714,0.86474609375,1.87109375,-0.162109375,-1.251220703125,0.74005126953125,1.91497802734375,-29.238095238095237,37.18485958485958,32.686691086691084
44:14.336,-0.33740234375,0.7119140625,1.85693359375,-1.13677978515625,6.85882568359375,-3.90625,-7.796825396825397,29.088156288156288,-5.547741147741148,0.18212890625,2.02978515625,-0.1064453125,-7.2021484375,2.471923828125,0.9307861328125,-6.897191697191697,-79.31770451770451,12.894749694749695,0.88232421875,1.87158203125,-0.15576171875,-0.8544921875,0.6561279296875,2.0294189453125,-28.638339438339436,36.88498168498168,33.13650793650793
44:15.213,-0.33740234375,0.7119140625,1.85693359375,7.0037841796875,-13.48114013671875,15.838623046875,-14.843956043956043,29.83785103785104,-14.094261294261294,0.0947265625,2.06005859375,0.02978515625,-6.06536865234375,17.5628662109375,-6.256103515625,-10.345787545787545,-82.76630036630036,16.193406593406593,0.708984375,1.94482421875,0.0078125,-5.706787109375,3.41796875,-2.41851806640625,-27.88864468864469,38.234432234432234,32.686691086691084
44:16.042,-0.2236328125,0.65380859375,1.87548828125,7.0037841796875,-13.48114013671875,15.838623046875,-14.843956043956043,29.83785103785104,-14.094261294261294,0.19189453125,2.03662109375,-0.0380859375,-0.6866455078125,-15.37322998046875,3.66973876953125,-9.446153846153846,-85.16532356532356,14.993894993894994,0.94384765625,1.8291015625,-0.25439453125,2.50244140625,-0.1983642578125,4.89044189453125,-26.389255189255188,35.68547008547009,32.386813186813185
44:17.017,-0.32275390625,0.3427734375,2.01904296875,-0.78582763671875,2.09808349609375,-2.7008056640625,-17.54285714285714,28.188522588522588,-15.593650793650793,0.19189453125,2.03662109375,-0.0380859375,-4.7760009765625,-2.47955322265625,1.22833251953125,-8.696459096459096,-82.16654456654456,15.443711843711844,0.94384765625,1.8291015625,-0.25439453125,-0.6561279296875,0.335693359375,2.93731689453125,-28.188522588522588,37.634676434676436,31.637118437118435
44:17.943,-0.13232421875,0.8828125,1.822265625,5.7220458984375,17.61627197265625,-13.42010498046875,-7.946764346764346,29.238095238095237,-5.697680097680098,0.21484375,2.02734375,-0.17236328125,-4.7760009765625,-2.47955322265625,1.22833251953125,-7.347008547008547,-85.46520146520146,16.49328449328449,0.93310546875,1.828125,-0.22900390625,-1.07574462890625,0.45013427734375,2.0904541015625,-27.288888888888888,38.084493284493284,33.58632478632479
44:18.820,-0.248046875,0.31982421875,1.90283203125,0.14495849609375,-13.1072998046875,2.34222412109375,-30.887423687423688,31.487179487179485,-17.692796092796094,0.22509765625,2.04638671875,-0.03515625,-1.0528564453125,2.532958984375,-1.19781494140625,-7.347008547008547,-85.46520146520146,16.49328449328449,0.93212890625,1.8369140625,-0.2177734375,-1.07574462890625,0.45013427734375,2.0904541015625,-27.438827838827837,37.934554334554335,33.13650793650793
44:19.942,-0.2939453125,0.80322265625,1.81005859375,-12.19940185546875,12.237548828125,-1.30462646484375,-7.496947496947497,27.738705738705736,-3.1487179487179486,0.21044921875,2.03173828125,-0.12109375,-5.2947998046875,0.79345703125,2.32696533203125,-8.696459096459096,-83.96581196581197,16.49328449328449,0.93310546875,1.84130859375,-0.21923828125,-1.01470947265625,0.5950927734375,2.3345947265625,-29.83785103785104,37.03492063492063,32.236874236874236
44:20.819,-0.166015625,1.275390625,1.5908203125,2.81524658203125,-1.64031982421875,11.1083984375,-13.494505494505495,28.03858363858364,-15.443711843711844,0.20361328125,2.025390625,-0.095703125,0.0762939453125,-5.19561767578125,1.0528564453125,-8.696459096459096,-83.96581196581197,16.49328449328449,0.9287109375,1.8388671875,-0.2236328125,-1.2359619140625,0.54931640625,3.02886962890625,-29.83785103785104,37.03492063492063,32.236874236874236
44:21.745,-0.27197265625,0.53173828125,2.00048828125,0.213623046875,-11.688232421875,1.7547607421875,-28.03858363858364,30.737484737484735,-14.544078144078144,0.2333984375,2.02197265625,-0.087890625,-3.082275390625,-0.54931640625,0.74005126953125,-9.146275946275946,-83.66593406593407,15.743589743589743,0.93505859375,1.826171875,-0.22265625,-0.946044921875,0.640869140625,1.83868408203125,-27.438827838827837,37.634676434676436,32.386813186813185
44:22.916,-0.22265625,0.94189453125,1.802734375,-8.96453857421875,7.171630859375,-8.575439453125,-8.996336996336996,30.437606837606836,-8.096703296703296,0.2265625,2.03564453125,-0.12646484375,-5.5389404296875,2.57110595703125,1.9073486328125,-7.646886446886446,-83.36605616605617,16.043467643467643,0.9326171875,1.8359375,-0.2236328125,-1.9989013671875,0.75531005859375,1.40380859375,-28.788278388278385,37.33479853479853,32.236874236874236
44:24.828,-0.37451171875,0.69970703125,1.90185546875,9.40704345703125,0.69427490234375,-3.3721923828125,-27.738705738705736,30.437606837606836,-16.943101343101343,0.22314453125,2.03271484375,-0.0283203125,-1.495361328125,1.68609619140625,0.43487548828125,-9.895970695970696,-85.46520146520146,16.49328449328449,0.921875,1.8447265625,-0.23388671875,-0.81634521484375,0.84686279296875,1.65557861328125,-29.088156288156288,37.33479853479853,32.98656898656898
44:25.645,-0.0419921875,0.98779296875,1.783203125,-0.8544921875,0.11444091796875,-12.1917724609375,-9.446153846153846,27.88864468864469,-8.696459096459096,0.2421875,2.0517578125,-0.1513671875,-8.1939697265625,1.82342529296875,1.5411376953125,-7.646886446886446,-85.16532356532356,17.54285714285714,0.9365234375,1.8408203125,-0.23779296875,-0.89263916015625,0.8392333984375,1.9378662109375,-26.98901098901099,38.53431013431013,31.936996336996337
44:26.523,-0.19384765625,0.80908203125,1.87255859375,6.82830810546875,-8.392333984375,11.25335693359375,-23.690354090354088,30.887423687423688,-17.39291819291819,0.23583984375,2.03369140625,-0.076171875,-1.09100341796875,-2.2430419921875,1.2969970703125,-8.546520146520146,-81.71672771672772,16.64322344322344,0.9267578125,1.8369140625,-0.2177734375,-0.84686279296875,0.55694580078125,1.9378662109375,-27.738705738705736,37.784615384615385,30.137728937728937
44:27.449,-0.1904296875,0.67919921875,1.865234375,0.38909912109375,5.0201416015625,-7.6141357421875,-18.44249084249084,29.088156288156288,-15.443711843711844,0.22021484375,2.04541015625,-0.0166015625,-2.55584716796875,0.701904296875,1.46484375,-9.296214896214895,-83.51599511599511,16.64322344322344,0.9248046875,1.82958984375,-0.22412109375,-1.220703125,1.02996826171875,1.97601318359375,-27.13894993894994,37.634676434676436,31.637118437118435
44:28.327,-0.1962890625,0.97216796875,1.80810546875,-8.33892822265625,5.645751953125,-11.8560791015625,-9.446153846153846,29.238095238095237,-5.697680097680098,0.22607421875,2.02587890625,-0.1337890625,-4.180908203125,1.21307373046875,0.6561279296875,-8.996336996336996,-83.06617826617827,17.39291819291819,0.92138671875,1.8369140625,-0.23193359375,-0.8544921875,0.81634521484375,1.739501953125,-29.088156288156288,38.084493284493284,32.98656898656898
44:29.253,-0.1962890625,0.97216796875,1.80810546875,3.72314453125,-1.0833740234375,13.13018798828125,-25.489621489621488,30.137728937728937,-19.19218559218559,0.2158203125,2.01513671875,-0.076171875,0.1220703125,-2.96783447265625,1.76239013671875,-8.996336996336996,-83.81587301587301,16.193406593406593,0.93310546875,1.83740234375,-0.2294921875,-1.1749267578125,0.5035400390625,1.97601318359375,-28.93821733821734,37.634676434676436,31.337240537240536
44:30.131,-0.15185546875,0.97900390625,1.8056640625,3.72314453125,-1.0833740234375,13.13018798828125,-23.39047619047619,30.887423687423688,-16.793162393162394,0.2294921875,2.01904296875,-0.06982421875,-1.953125,1.18255615234375,0.1068115234375,-9.296214896214895,-84.26568986568986,15.143833943833943,0.93115234375,1.8388671875,-0.2177734375,-1.312255859375,0.93841552734375,1.79290771484375,-26.23931623931624,37.784615384615385,31.936996336996337
44:31.105,-0.33349609375,0.7490234375,1.9384765625,-0.51116943359375,0.89263916015625,2.3956298828125,-23.39047619047619,30.887423687423688,-16.793162393162394,0.21337890625,2.0458984375,-0.18505859375,-4.84466552734375,0.38909912109375,0.93841552734375,-8.996336996336996,-83.81587301587301,16.193406593406593,0.93359375,1.83154296875,-0.2021484375,0.0152587890625,0.98419189453125,2.51007080078125,-27.738705738705736,37.33479853479853,32.536752136752135
44:31.934,-0.3525390625,0.90283203125,1.8369140625,-3.94439697265625,23.8037109375,-10.61248779296875,-9.446153846153846,28.638339438339436,-8.096703296703296,0.21337890625,2.0458984375,-0.18505859375,-4.84466552734375,0.38909912109375,0.93841552734375,-9.596092796092796,-82.76630036630036,15.593650793650793,0.93359375,1.83154296875,-0.2021484375,0.0152587890625,0.98419189453125,2.51007080078125,-28.338461538461537,37.03492063492063,33.88620268620269
44:32.714,-0.14208984375,1.0302734375,1.751953125,1.007080078125,1.7852783203125,9.124755859375,-23.54041514041514,31.787057387057384,-19.941880341880342,0.193359375,2.0283203125,-0.16796875,1.3275146484375,-2.51007080078125,-0.5035400390625,-9.596092796092796,-82.76630036630036,15.593650793650793,0.931640625,1.8310546875,-0.216796875,-3.143310546875,-1.3580322265625,2.02178955078125,-28.338461538461537,37.03492063492063,33.88620268620269
44:33.543,-0.25634765625,0.48388671875,1.9326171875,-1.3427734375,-11.22283935546875,-2.20489501953125,-23.99023199023199,31.936996336996337,-15.443711843711844,0.20166015625,2.03125,-0.14013671875,-3.04412841796875,1.7852783203125,-0.8697509765625,-8.246642246642246,-83.06617826617827,16.64322344322344,0.91650390625,1.84375,-0.21142578125,-0.8697509765625,0.7476806640625,1.82342529296875,-27.438827838827837,37.634676434676436,30.287667887667887
44:34.567,-0.35546875,0.59033203125,1.90771484375,-2.1209716796875,7.9803466796875,-2.14385986328125,-11.245421245421245,29.238095238095237,-11.095482295482295,0.18359375,2.025390625,-0.169921875,-5.45501708984375,3.33404541015625,1.7547607421875,-9.146275946275946,-82.16654456654456,16.043467643467643,0.9296875,1.83251953125,-0.2197265625,-0.9002685546875,1.068115234375,1.8310546875,-26.23931623931624,38.084493284493284,32.236874236874236
44:35.444,-0.14892578125,1.14453125,1.71337890625,-8.06427001953125,12.42828369140625,6.96563720703125,-14.394139194139193,30.437606837606836,-13.494505494505495,0.1767578125,2.03173828125,-0.18994140625,-2.95257568359375,-1.77764892578125,0.4119873046875,-8.096703296703296,-84.4156288156288,16.49328449328449,0.91455078125,1.8544921875,-0.21044921875,0.17547607421875,0.66375732421875,1.373291015625,-27.288888888888888,38.084493284493284,31.487179487179485
44:36.273,-0.14892578125,1.14453125,1.71337890625,5.6304931640625,-1.65557861328125,-0.55694580078125,-27.588766788766787,31.637118437118435,-13.644444444444444,0.171875,2.04248046875,-0.1484375,-2.0904541015625,-2.69317626953125,0.89263916015625,-7.496947496947497,-83.81587301587301,15.143833943833943,0.9150390625,1.84521484375,-0.20947265625,-1.09100341796875,0.946044921875,1.39617919921875,-28.338461538461537,37.33479853479853,32.236874236874236
44:37.151,-0.16357421875,0.54345703125,1.94287109375,5.6304931640625,-1.65557861328125,-0.55694580078125,-12.444932844932845,31.337240537240536,-10.645665445665445,0.18408203125,2.00830078125,-0.1513671875,-6.34765625,2.8533935546875,2.32696533203125,-8.546520146520146,-84.26568986568986,17.39291819291819,0.91650390625,1.8447265625,-0.22412109375,-1.09100341796875,1.13677978515625,1.4801025390625,-27.88864468864469,38.234432234432234,32.08693528693529
44:38.028,-0.31494140625,0.599609375,1.9228515625,-2.29644775390625,5.30242919921875,-0.46539306640625,-12.444932844932845,31.337240537240536,-10.645665445665445,0.18408203125,2.00830078125,-0.1513671875,-1.50299072265625,-2.6397705078125,0.75531005859375,-8.396581196581197,-83.36605616605617,14.993894993894994,0.91650390625,1.8447265625,-0.22412109375,-1.01470947265625,0.762939453125,2.41851806640625,-28.03858363858364,37.03492063492063,33.28644688644688
44:38.857,-0.20849609375,0.904296875,1.7529296875,-3.4942626953125,3.54766845703125,-3.31878662109375,-13.194627594627594,29.83785103785104,-12.294993894993894,0.20458984375,2.0283203125,-0.107421875,-1.50299072265625,-2.6397705078125,0.75531005859375,-8.396581196581197,-83.36605616605617,14.993894993894994,0.91357421875,1.841796875,-0.2109375,-1.01470947265625,0.762939453125,2.41851806640625,-28.03858363858364,37.03492063492063,33.28644688644688
44:39.637,-0.21533203125,0.78515625,1.892578125,0.5035400390625,-3.37982177734375,6.9427490234375,-28.338461538461537,32.98656898656898,-14.694017094017093,0.1845703125,2.02099609375,-0.1298828125,1.4801025390625,-1.91497802734375,-0.67901611328125,-8.246642246642246,-82.76630036630036,17.992673992673993,0.9140625,1.84375,-0.21875,-1.220703125,0.92315673828125,1.953125,-28.93821733821734,37.934554334554335,32.08693528693529
44:40.466,-0.2666015625,0.62060546875,1.93798828125,-2.8228759765625,5.42449951171875,-0.9307861328125,-17.39291819291819,30.137728937728937,-13.044688644688645,0.1806640625,2.0224609375,-0.14794921875,-4.5013427734375,1.85394287109375,1.71661376953125,-8.096703296703296,-82.91623931623931,16.49328449328449,0.93896484375,1.84423828125,-0.21044921875,-1.3580322265625,1.56402587890625,1.41143798828125,-27.288888888888888,36.73504273504273,31.487179487179485
44:41.294,-0.2666015625,0.62060546875,1.93798828125,-6.011962890625,5.8441162109375,-8.7127685546875,-11.245421245421245,28.93821733821734,-10.795604395604395,0.1962890625,2.02099609375,-0.18310546875,-4.7454833984375,-1.953125,1.9073486328125,-6.747252747252747,-83.81587301587301,17.39291819291819,0.923828125,1.8369140625,-0.2060546875,-1.068115234375,0.34332275390625,1.47247314453125,-26.98901098901099,36.285225885225884,33.28644688644688
44:42.172,-0.08935546875,1.0078125,1.7236328125,1.89208984375,-1.59454345703125,11.43646240234375,-27.288888888888888,33.43638583638584,-15.743589743589743,0.17919921875,2.03125,-0.15087890625,0.02288818359375,-2.92205810546875,0.6866455078125,-8.396581196581197,-83.36605616605617,15.743589743589743,0.92041015625,1.83740234375,-0.2060546875,-1.3427734375,0.4730224609375,2.06756591796875,-27.88864468864469,37.634676434676436,33.43638583638584
44:43.147,-0.2392578125,0.8349609375,1.86474609375,1.89208984375,-1.59454345703125,11.43646240234375,-19.34212454212454,32.08693528693529,-15.293772893772893,0.201171875,2.0283203125,-0.08544921875,-4.82940673828125,3.28826904296875,1.83868408203125,-7.796825396825397,-83.81587301587301,16.193406593406593,0.92041015625,1.84814453125,-0.2119140625,-0.98419189453125,0.74005126953125,1.71661376953125,-26.539194139194137,38.53431013431013,33.28644688644688
44:44.073,-0.3369140625,0.53662109375,1.94384765625,-1.220703125,0.0152587890625,-4.0435791015625,-19.34212454212454,32.08693528693529,-15.293772893772893,0.18701171875,2.03466796875,-0.18798828125,-5.76019287109375,0.83160400390625,2.166748046875,-9.146275946275946,-82.16654456654456,16.793162393162394,0.92041015625,1.85302734375,-0.212890625,-0.80108642578125,0.61798095703125,2.18963623046875,-28.338461538461537,36.285225885225884,32.236874236874236
44:44.999,-0.24609375,0.7255859375,1.90283203125,-3.9520263671875,4.1351318359375,-4.8065185546875,-10.345787545787545,29.088156288156288,-8.996336996336996,0.18701171875,2.03466796875,-0.18798828125,-1.80816650390625,-1.79290771484375,1.30462646484375,-8.246642246642246,-82.31648351648352,16.943101343101343,0.92041015625,1.85302734375,-0.212890625,-1.251220703125,-0.5950927734375,2.34222412109375,-27.13894993894994,38.68424908424908,32.686691086691084
44:45.828,-0.13720703125,1.1044921875,1.76611328125,-2.17437744140625,3.10516357421875,7.080078125,-16.49328449328449,29.687912087912085,-15.293772893772893,0.19384765625,2.04296875,-0.16748046875,-1.80816650390625,-1.79290771484375,1.30462646484375,-8.246642246642246,-82.31648351648352,16.943101343101343,0.9326171875,1.83837890625,-0.21826171875,-1.251220703125,-0.5950927734375,2.34222412109375,-29.238095238095237,37.934554334554335,32.686691086691084
44:46.754,-0.3095703125,0.53759765625,1.99365234375,0.11444091796875,-6.11114501953125,2.960205078125,-26.689133089133087,31.787057387057384,-16.64322344322344,0.20166015625,2.0458984375,-0.11181640625,-6.61468505859375,2.6397705078125,0.64849853515625,-8.546520146520146,-83.06617826617827,16.193406593406593,0.92578125,1.8359375,-0.20556640625,-1.25885009765625,0.64849853515625,1.93023681640625,-28.188522588522588,38.234432234432234,33.43638583638584
44:47.681,-0.3212890625,0.55029296875,1.935546875,-2.67791748046875,1.56402587890625,-2.38800048828125,-12.594871794871795,28.638339438339436,-10.195848595848595,0.21142578125,2.037109375,-0.10498046875,-5.95855712890625,2.14385986328125,1.190185546875,-7.197069597069596,-83.06617826617827,15.893528693528692,0.91943359375,1.8486328125,-0.2119140625,-0.90789794921875,1.28173828125,1.54876708984375,-28.188522588522588,38.234432234432234,33.43638583638584
44:48.558,0.04638671875,0.81201171875,1.74365234375,-3.5400390625,0.37384033203125,-4.46319580078125,-15.593650793650793,30.587545787545785,-15.443711843711844,0.16845703125,2.04345703125,-0.18603515625,-3.4942626953125,-1.495361328125,1.50299072265625,-8.696459096459096,-83.36605616605617,17.093040293040293,0.91845703125,1.84130859375,-0.21728515625,-1.495361328125,1.190185546875,0.90789794921875,-28.338461538461537,37.03492063492063,31.936996336996337
44:49.582,-0.27978515625,0.52685546875,1.94287109375,-0.51116943359375,0.0762939453125,0.93841552734375,-28.93821733821734,29.83785103785104,-11.395360195360196,0.20556640625,2.021484375,-0.1015625,0.03814697265625,-1.8768310546875,0.02288818359375,-9.895970695970696,-82.91623931623931,16.49328449328449,0.91845703125,1.84326171875,-0.205078125,-1.35040283203125,0.4425048828125,2.18963623046875,-27.438827838827837,38.234432234432234,31.037362637362637
44:50.411,-0.2978515625,0.48974609375,1.986328125,-2.34222412109375,2.23541259765625,2.288818359375,-13.194627594627594,29.537973137973136,-12.744810744810744,0.20654296875,2.037109375,-0.12841796875,-6.20269775390625,2.47955322265625,1.47247314453125,-8.546520146520146,-83.06617826617827,16.64322344322344,0.91748046875,1.84228515625,-0.20263671875,-0.89263916015625,1.07574462890625,1.8768310546875,-27.13894993894994,38.68424908424908,33.13650793650793
44:51.337,-0.13134765625,0.896484375,1.84326171875,-2.0751953125,1.67083740234375,-2.76947021484375,-10.795604395604395,28.93821733821734,-7.796825396825397,0.17138671875,2.06787109375,-0.158203125,-4.60052490234375,-2.02178955078125,1.0528564453125,-8.996336996336996,-80.96703296703296,15.143833943833943,0.91357421875,1.84521484375,-0.20166015625,-1.1138916015625,0.52642822265625,2.716064453125,-28.788278388278385,37.784615384615385,32.98656898656898
44:52.117,-0.13134765625,0.896484375,1.84326171875,-2.0751953125,1.67083740234375,-2.76947021484375,-27.738705738705736,31.037362637362637,-14.843956043956043,0.17919921875,2.02685546875,-0.18896484375,1.89971923828125,-4.29534912109375,-2.25067138671875,-8.096703296703296,-81.86666666666666,16.043467643467643,0.92431640625,1.845703125,-0.20263671875,-1.10626220703125,0.6103515625,1.93023681640625,-27.288888888888888,37.784615384615385,32.98656898656898
44:52.946,-0.19873046875,0.8662109375,1.92041015625,-3.80706787109375,-3.1585693359375,6.5765380859375,-27.738705738705736,31.037362637362637,-14.843956043956043,0.17919921875,2.02685546875,-0.18896484375,-4.12750244140625,1.556396484375,1.739501953125,-9.146275946275946,-84.4156288156288,15.443711843711844,0.92431640625,1.845703125,-0.20263671875,-1.4801025390625,0.90789794921875,1.28173828125,-27.738705738705736,37.33479853479853,33.88620268620269
44:53.872,-0.33740234375,0.40185546875,1.98046875,-3.35693359375,1.373291015625,-1.28936767578125,-19.34212454212454,31.487179487179485,-17.692796092796094,0.171875,2.00390625,-0.1494140625,-4.12750244140625,1.556396484375,1.739501953125,-8.096703296703296,-84.7155067155067,15.443711843711844,0.91650390625,1.8466796875,-0.20849609375,-1.4801025390625,0.90789794921875,1.28173828125,-26.539194139194137,35.53553113553114,31.487179487179485
44:54.652,-0.146484375,0.85595703125,1.80712890625,-0.78582763671875,4.57763671875,-8.270263671875,-10.645665445665445,29.537973137973136,-11.395360195360196,0.146484375,2.02197265625,-0.27001953125,-2.899169921875,1.7547607421875,1.59454345703125,-8.096703296703296,-84.7155067155067,15.443711843711844,0.92236328125,1.85009765625,-0.205078125,-0.90789794921875,0.55694580078125,1.953125,-26.539194139194137,35.53553113553114,31.487179487179485
44:55.481,-0.16259765625,0.78955078125,1.89697265625,-2.50244140625,0.93841552734375,9.9639892578125,-25.489621489621488,31.337240537240536,-18.892307692307693,0.13525390625,2.0263671875,-0.23486328125,4.5623779296875,-4.39453125,-0.7476806640625,-8.096703296703296,-80.36727716727717,13.344566544566543,0.91650390625,1.84765625,-0.20751953125,-1.1444091796875,0.640869140625,1.85394287109375,-29.987789987789988,37.634676434676436,32.08693528693529
44:56.358,-0.41552734375,0.57666015625,1.9169921875,3.85284423828125,-25.35247802734375,0.63323974609375,-25.33968253968254,31.037362637362637,-15.293772893772893,0.1455078125,1.97607421875,-0.23876953125,0.08392333984375,-0.28228759765625,1.01470947265625,-7.347008547008547,-82.61636141636141,16.49328449328449,0.9033203125,1.84375,-0.19873046875,-1.59454345703125,1.3427734375,1.4801025390625,-27.738705738705736,36.73504273504273,33.58632478632479
44:57.284,-0.41552734375,0.57666015625,1.9169921875,1.19781494140625,5.5389404296875,-11.505126953125,-11.695238095238095,25.18974358974359,-15.143833943833943,0.14404296875,2.0107421875,-0.2861328125,-7.71331787109375,2.4261474609375,2.64739990234375,-7.347008547008547,-83.96581196581197,16.043467643467643,0.912109375,1.84814453125,-0.19873046875,-0.95367431640625,0.75531005859375,1.85394287109375,-26.98901098901099,37.33479853479853,33.58632478632479
44:58.113,-0.193359375,0.84228515625,1.83056640625,1.19781494140625,5.5389404296875,-11.505126953125,-25.78949938949939,29.83785103785104,-15.143833943833943,0.1455078125,2.02197265625,-0.28369140625,0.213623046875,-3.86810302734375,0.8697509765625,-6.447374847374848,-83.51599511599511,14.843956043956043,0.93017578125,1.82861328125,-0.22265625,-1.1749267578125,0.46539306640625,1.48773193359375,-28.03858363858364,36.73504273504273,31.936996336996337
44:58.942,-0.22705078125,0.84619140625,1.8193359375,-9.57489013671875,11.4593505859375,12.1002197265625,-25.78949938949939,29.83785103785104,-15.143833943833943,0.1455078125,2.02197265625,-0.28369140625,0.213623046875,-3.86810302734375,0.8697509765625,-7.197069597069596,-82.01660561660562,17.39291819291819,0.93017578125,1.82861328125,-0.22265625,-1.1749267578125,0.46539306640625,1.48773193359375,-25.93943833943834,35.985347985347985,30.887423687423688
44:59.722,-0.31005859375,0.66162109375,1.88330078125,4.67681884765625,-11.23809814453125,-2.471923828125,-27.288888888888888,33.43638583638584,-10.645665445665445,0.15185546875,2.00732421875,-0.236328125,0.9307861328125,4.2572021484375,0.78582763671875,-7.197069597069596,-82.01660561660562,17.39291819291819,0.90283203125,1.85107421875,-0.19580078125,-0.8544921875,0.87738037109375,1.861572265625,-25.93943833943834,35.985347985347985,30.887423687423688
45:00.599,-0.32275390625,0.7216796875,1.80859375,-3.42559814453125,-19.0582275390625,-6.85882568359375,-16.49328449328449,31.487179487179485,-16.64322344322344,0.15087890625,2.0185546875,-0.25634765625,-7.62939453125,0.6256103515625,3.85284423828125,-6.597313797313797,-82.91623931623931,15.443711843711844,0.919921875,1.84228515625,-0.2041015625,-0.9307861328125,0.63323974609375,2.32696533203125,-29.537973137973136,36.285225885225884,33.58632478632479
45:01.526,-0.20263671875,0.76513671875,1.869140625,-5.584716796875,5.02777099609375,12.03155517578125,-26.98901098901099,32.836630036630034,-16.943101343101343,0.1689453125,2.04541015625,-0.2705078125,0.60272216796875,-3.265380859375,-0.1678466796875,-8.396581196581197,-82.91623931623931,16.043467643467643,0.89599609375,1.85302734375,-0.19189453125,-1.190185546875,0.152587890625,2.349853515625,-28.788278388278385,37.33479853479853,31.187301587301587
45:02.306,-0.20263671875,0.76513671875,1.869140625,-4.99725341796875,-9.124755859375,-6.20269775390625,-25.639560439560437,33.58632478632479,-10.795604395604395,0.18212890625,2.03271484375,-0.18359375,-0.75531005859375,3.7078857421875,0.72479248046875,-7.496947496947497,-81.71672771672772,15.143833943833943,0.90478515625,1.85400390625,-0.19873046875,-1.40380859375,1.13677978515625,1.35040283203125,-27.88864468864469,35.68547008547009,32.386813186813185
45:03.135,-0.38427734375,0.62744140625,1.9697265625,-4.99725341796875,-9.124755859375,-6.20269775390625,-11.995115995115995,30.137728937728937,-13.044688644688645,0.14013671875,2.03076171875,-0.23388671875,-7.049560546875,1.983642578125,2.7313232421875,-9.146275946275946,-83.36605616605617,17.093040293040293,0.908203125,1.84716796875,-0.20068359375,-0.79345703125,0.48828125,1.99127197265625,-28.188522588522588,36.135286935286935,31.637118437118435
45:04.012,-0.3046875,0.82470703125,1.84619140625,-0.0457763671875,4.2724609375,-6.04248046875,-11.995115995115995,30.137728937728937,-13.044688644688645,0.14013671875,2.03076171875,-0.23388671875,-1.7547607421875,-3.66973876953125,1.33514404296875,-9.296214896214895,-82.01660561660562,15.893528693528692,0.908203125,1.84716796875,-0.20068359375,-0.579833984375,0.4730224609375,1.6326904296875,-26.83907203907204,37.934554334554335,32.386813186813185
45:04.841,0.02294921875,0.9619140625,1.82177734375,-5.36346435546875,-5.97381591796875,2.8076171875,-24.44004884004884,33.43638583638584,-15.743589743589743,0.1171875,2.037109375,-0.2734375,-1.7547607421875,-3.66973876953125,1.33514404296875,-8.246642246642246,-82.01660561660562,16.943101343101343,0.92236328125,1.8466796875,-0.21044921875,-0.579833984375,0.4730224609375,1.6326904296875,-26.08937728937729,38.234432234432234,32.386813186813185
45:05.718,-0.49853515625,0.517578125,1.97705078125,0.823974609375,-1.52587890625,-7.34710693359375,-24.739926739926737,33.73626373626374,-8.546520146520146,0.13818359375,2.04150390625,-0.240234375,-0.885009765625,2.7008056640625,-0.81634521484375,-8.246642246642246,-82.01660561660562,16.943101343101343,0.89599609375,1.85205078125,-0.189453125,-1.0986328125,0.701904296875,2.00653076171875,-26.08937728937729,38.234432234432234,32.386813186813185
45:06.560,-0.43701171875,0.6611328125,1.8876953125,-3.4942626953125,7.8277587890625,-3.753662109375,-14.244200244200243,31.936996336996337,-14.694017094017093,0.1171875,2.03466796875,-0.29052734375,-7.82012939453125,3.83758544921875,3.02886962890625,-7.796825396825397,-82.76630036630036,16.943101343101343,0.91259765625,1.85205078125,-0.20849609375,-1.0528564453125,0.98419189453125,1.67083740234375,-28.788278388278385,37.784615384615385,33.58632478632479
45:07.376,-0.3212890625,0.646484375,1.9931640625,-1.79290771484375,2.57110595703125,4.82940673828125,-19.49206349206349,32.98656898656898,-15.143833943833943,0.13623046875,2.03662109375,-0.27587890625,-4.33349609375,-0.96893310546875,1.4190673828125,-8.246642246642246,-81.71672771672772,14.843956043956043,0.912109375,1.8544921875,-0.19873046875,-0.81634521484375,0.54931640625,1.89208984375,-26.83907203907204,37.934554334554335,34.186080586080585
45:08.156,-0.3212890625,0.646484375,1.9931640625,-1.79290771484375,2.57110595703125,4.82940673828125,-23.690354090354088,35.23565323565323,-9.895970695970696,0.154296875,2.0234375,-0.20556640625,-1.4801025390625,1.2969970703125,1.678466796875,-8.246642246642246,-82.76630036630036,15.893528693528692,0.9072265625,1.84423828125,-0.20751953125,-0.81634521484375,0.762939453125,2.5177001953125,-27.288888888888888,37.784615384615385,31.936996336996337
45:09.131,-0.267578125,0.5078125,2.00048828125,3.50189208984375,-17.63153076171875,0.30517578125,-13.344566544566543,29.238095238095237,-14.544078144078144,0.15625,2.01953125,-0.2314453125,-6.87408447265625,2.685546875,2.01416015625,-6.597313797313797,-83.96581196581197,14.993894993894994,0.9130859375,1.85205078125,-0.2041015625,-1.4190673828125,1.2054443359375,1.2359619140625,-28.93821733821734,38.98412698412698,33.13650793650793
45:10.155,-0.33349609375,0.5791015625,1.95263671875,-1.74713134765625,-0.02288818359375,-1.8463134765625,-12.744810744810744,31.337240537240536,-13.644444444444444,0.1552734375,2.02392578125,-0.27880859375,-5.2642822265625,-0.1983642578125,0.8087158203125,-8.096703296703296,-82.16654456654456,16.043467643467643,0.91650390625,1.83935546875,-0.21142578125,-0.81634521484375,0.18310546875,2.1514892578125,-28.03858363858364,37.784615384615385,33.58632478632479
45:10.935,-0.19775390625,0.66162109375,1.87646484375,2.70843505859375,9.45281982421875,-0.87738037109375,-12.744810744810744,31.337240537240536,-13.644444444444444,0.1552734375,2.02392578125,-0.27880859375,-0.6103515625,2.349853515625,-0.54931640625,-8.396581196581197,-83.36605616605617,16.49328449328449,0.91650390625,1.83935546875,-0.21142578125,-0.89263916015625,0.57220458984375,2.0294189453125,-29.537973137973136,37.33479853479853,33.28644688644688
45:11.763,-0.3115234375,0.48876953125,2.0126953125,3.41033935546875,-18.28765869140625,-0.95367431640625,-28.638339438339436,31.637118437118435,-11.695238095238095,0.1865234375,2.02783203125,-0.1611328125,-0.6103515625,2.349853515625,-0.54931640625,-8.396581196581197,-83.36605616605617,16.49328449328449,0.90673828125,1.84375,-0.20458984375,-0.89263916015625,0.57220458984375,2.0294189453125,-29.537973137973136,37.33479853479853,33.28644688644688
45:12.543,-0.2490234375,0.74560546875,1.9052734375,-6.439208984375,12.55035400390625,-7.62176513671875,-13.194627594627594,30.137728937728937,-11.695238095238095,0.16455078125,2.03369140625,-0.16162109375,-6.988525390625,-0.4730224609375,2.90679931640625,-7.646886446886446,-83.66593406593407,16.49328449328449,0.92041015625,1.8798828125,-0.21826171875,-0.90789794921875,0.28228759765625,1.79290771484375,-26.98901098901099,38.83418803418803,31.187301587301587
45:13.324,-0.19140625,1.20361328125,1.71923828125,-5.91278076171875,-7.39288330078125,6.6375732421875,-21.29133089133089,31.337240537240536,-16.793162393162394,0.16943359375,2.03125,-0.24462890625,-1.3275146484375,-2.60162353515625,1.80816650390625,-7.496947496947497,-84.26568986568986,17.39291819291819,0.923828125,1.8466796875,-0.1953125,-0.58746337890625,0.1678466796875,1.73187255859375,-28.338461538461537,37.784615384615385,32.536752136752135
45:14.250,-0.19140625,1.20361328125,1.71923828125,2.44140625,-1.83868408203125,-6.103515625,-26.23931623931624,32.686691086691084,-11.995115995115995,0.1748046875,2.0205078125,-0.15380859375,-0.396728515625,3.15093994140625,-0.6103515625,-8.996336996336996,-81.71672771672772,15.893528693528692,0.9072265625,1.8525390625,-0.20361328125,-1.129150390625,0.63323974609375,1.89971923828125,-29.537973137973136,35.985347985347985,32.236874236874236
45:15.078,-0.18896484375,0.431640625,1.98193359375,2.44140625,-1.83868408203125,-6.103515625,-26.23931623931624,32.686691086691084,-11.995115995115995,0.173828125,2.02734375,-0.18603515625,-7.4310302734375,0.091552734375,2.64739990234375,-7.646886446886446,-82.91623931623931,14.993894993894994,0.8974609375,1.8505859375,-0.2119140625,-1.18255615234375,0.9765625,1.85394287109375,-29.238095238095237,38.234432234432234,31.037362637362637
45:16.005,-0.26611328125,0.69482421875,1.87158203125,-0.9307861328125,4.46319580078125,-2.89154052734375,-11.695238095238095,29.83785103785104,-8.996336996336996,0.173828125,2.02734375,-0.18603515625,-5.56182861328125,-5.0201416015625,2.03704833984375,-8.696459096459096,-81.86666666666666,15.743589743589743,0.91162109375,1.8466796875,-0.19970703125,-0.87738037109375,0.6103515625,2.66265869140625,-28.188522588522588,38.234432234432234,32.08693528693529
45:16.931,-0.23486328125,0.8173828125,1.8701171875,3.72314453125,1.8310546875,-3.84521484375,-16.49328449328449,31.487179487179485,-13.944322344322345,0.11279296875,2.044921875,-0.220703125,-5.56182861328125,-5.0201416015625,2.03704833984375,-7.496947496947497,-82.01660561660562,16.193406593406593,0.91162109375,1.8466796875,-0.19970703125,-0.87738037109375,0.6103515625,2.66265869140625,-28.788278388278385,37.33479853479853,32.98656898656898
45:17.711,-0.3154296875,0.587890625,1.892578125,2.78472900390625,-10.33782958984375,6.2255859375,-28.03858363858364,33.58632478632479,-13.944322344322345,0.17822265625,2.025390625,-0.17919921875,1.03759765625,-1.9989013671875,0.03814697265625,-7.496947496947497,-82.01660561660562,16.193406593406593,0.9091796875,1.8486328125,-0.1982421875,-1.07574462890625,0.67138671875,1.983642578125,-28.788278388278385,37.33479853479853,32.98656898656898
45:18.588,-0.2421875,0.666015625,1.962890625,1.51824951171875,0.57220458984375,-3.7078857421875,-16.793162393162394,28.93821733821734,-13.494505494505495,0.1962890625,2.0244140625,-0.09521484375,-10.19287109375,3.35693359375,3.54766845703125,-8.096703296703296,-83.66593406593407,14.694017094017093,0.91259765625,1.83984375,-0.20068359375,-1.24359130859375,1.48773193359375,1.45721435546875,-26.98901098901099,36.285225885225884,32.236874236874236
45:19.417,-0.2314453125,0.7490234375,1.89697265625,-8.3770751953125,10.97869873046875,5.0201416015625,-14.394139194139193,28.188522588522588,-11.545299145299145,0.19384765625,2.033203125,-0.18310546875,-5.19561767578125,0.0,0.701904296875,-8.696459096459096,-83.36605616605617,16.49328449328449,0.91845703125,1.84814453125,-0.21728515625,-0.8392333984375,0.5035400390625,2.197265625,-27.288888888888888,37.33479853479853,32.236874236874236
45:20.197,-0.2314453125,0.7490234375,1.89697265625,-8.3770751953125,10.97869873046875,5.0201416015625,-26.98901098901099,30.437606837606836,-15.893528693528692,0.22705078125,2.033203125,-0.1220703125,0.77056884765625,2.47955322265625,-0.91552734375,-7.646886446886446,-82.61636141636141,16.49328449328449,0.92041015625,1.8388671875,-0.201171875,-0.9765625,0.640869140625,1.9683837890625,-28.03858363858364,37.33479853479853,31.487179487179485
45:21.221,-0.23779296875,0.466796875,2.0322265625,-1.25885009765625,16.04461669921875,-0.7476806640625,-9.596092796092796,28.788278388278385,-8.546520146520146,0.18212890625,2.02978515625,-0.173828125,-3.3721923828125,-1.36566162109375,2.89154052734375,-8.696459096459096,-83.66593406593407,16.49328449328449,0.9140625,1.84326171875,-0.19677734375,-0.83160400390625,0.518798828125,2.5787353515625,-27.88864468864469,37.634676434676436,32.686691086691084
45:22.098,-0.12646484375,0.88037109375,1.8154296875,-1.25885009765625,16.04461669921875,-0.7476806640625,-15.593650793650793,28.03858363858364,-14.394139194139193,0.171875,2.04638671875,-0.27734375,-1.7242431640625,-0.3814697265625,-0.152587890625,-8.396581196581197,-82.16654456654456,15.743589743589743,0.92138671875,1.8447265625,-0.193359375,-0.7171630859375,0.45013427734375,2.288818359375,-28.188522588522588,37.18485958485958,33.43638583638584
45:22.976,0.0166015625,1.26806640625,1.71630859375,-11.84844970703125,5.63812255859375,3.57818603515625,-15.593650793650793,28.03858363858364,-14.394139194139193,0.171875,2.04638671875,-0.27734375,-0.86212158203125,0.86212158203125,0.32806396484375,-8.696459096459096,-83.66593406593407,16.793162393162394,0.92138671875,1.8447265625,-0.193359375,-0.7476806640625,0.6561279296875,2.38037109375,-28.638339438339436,37.18485958485958,32.08693528693529
45:23.805,-0.55078125,0.44580078125,1.896484375,1.54876708984375,-12.2222900390625,-6.23321533203125,-31.936996336996337,29.238095238095237,-10.495726495726496,0.19970703125,2.0341796875,-0.1103515625,-0.86212158203125,0.86212158203125,0.32806396484375,-8.696459096459096,-83.66593406593407,16.793162393162394,0.91845703125,1.8525390625,-0.21728515625,-0.7476806640625,0.6561279296875,2.38037109375,-28.338461538461537,37.784615384615385,30.437606837606836
45:24.731,-0.26220703125,0.7587890625,1.86181640625,-1.3885498046875,5.22613525390625,-7.62939453125,-9.596092796092796,27.738705738705736,-8.546520146520146,0.1962890625,2.02294921875,-0.20703125,-5.14984130859375,0.77056884765625,2.03704833984375,-8.696459096459096,-84.4156288156288,14.394139194139193,0.91162109375,1.84716796875,-0.2041015625,-0.9918212890625,0.89263916015625,1.77001953125,-28.338461538461537,37.784615384615385,30.437606837606836
45:25.560,-0.154296875,0.85595703125,1.86279296875,-4.6844482421875,5.615234375,14.06097412109375,-20.39169719169719,30.437606837606836,-17.992673992673993,0.185546875,2.0126953125,-0.22021484375,-1.739501953125,-1.30462646484375,0.14495849609375,-10.645665445665445,-82.16654456654456,15.743589743589743,0.91259765625,1.86328125,-0.20068359375,-0.90789794921875,0.091552734375,2.03704833984375,-28.638339438339436,37.934554334554335,33.13650793650793
45:26.486,-0.35888671875,0.65087890625,1.9248046875,2.0904541015625,3.936767578125,-1.0833740234375,-26.689133089133087,31.037362637362637,-14.244200244200243,0.2109375,2.01220703125,-0.17431640625,-2.6702880859375,3.48663330078125,0.38909912109375,-9.146275946275946,-81.86666666666666,16.793162393162394,0.912109375,1.84326171875,-0.201171875,-1.44195556640625,1.0986328125,1.922607421875,-29.088156288156288,37.784615384615385,31.936996336996337
45:27.474,-0.22021484375,0.8896484375,1.8193359375,-1.7242431640625,-0.11444091796875,-13.4124755859375,-10.795604395604395,28.93821733821734,-10.795604395604395,0.185546875,2.03076171875,-0.27783203125,-4.40216064453125,0.48828125,0.396728515625,-6.747252747252747,-83.06617826617827,15.143833943833943,0.90771484375,1.8466796875,-0.1982421875,-0.2288818359375,1.52587890625,1.99127197265625,-27.88864468864469,36.88498168498168,32.386813186813185
45:28.436,-0.17138671875,0.75634765625,1.8818359375,2.1209716796875,-1.739501953125,14.12200927734375,-28.638339438339436,33.73626373626374,-17.39291819291819,0.15625,2.02294921875,-0.208984375,0.701904296875,-1.739501953125,1.03759765625,-9.296214896214895,-82.76630036630036,16.64322344322344,0.9189453125,1.84912109375,-0.19140625,-0.92315673828125,0.4730224609375,2.51007080078125,-28.03858363858364,37.784615384615385,31.487179487179485
45:29.265,-0.17138671875,0.75634765625,1.8818359375,-1.7547607421875,0.40435791015625,-0.3662109375,-24.739926739926737,32.686691086691084,-15.743589743589743,0.1953125,2.02880859375,-0.12939453125,-8.30841064453125,1.8310546875,1.7852783203125,-8.396581196581197,-82.61636141636141,15.743589743589743,0.91162109375,1.85595703125,-0.2001953125,-1.129150390625,0.91552734375,1.70135498046875,-28.188522588522588,37.18485958485958,32.386813186813185
45:30.191,-0.3525390625,0.29833984375,2.0361328125,-1.7547607421875,0.40435791015625,-0.3662109375,-8.696459096459096,28.638339438339436,-7.047130647130647,0.181640625,2.01318359375,-0.25,-4.364013671875,-1.1138916015625,1.1138916015625,-9.146275946275946,-83.96581196581197,16.49328449328449,0.91455078125,1.85009765625,-0.189453125,-0.335693359375,1.2054443359375,2.14385986328125,-27.88864468864469,38.234432234432234,32.686691086691084
45:30.971,-0.16845703125,0.90576171875,1.85009765625,-4.9591064453125,10.52093505859375,-4.82940673828125,-8.696459096459096,28.638339438339436,-7.047130647130647,0.181640625,2.01318359375,-0.25,-2.13623046875,-0.9613037109375,0.3814697265625,-8.546520146520146,-82.76630036630036,15.143833943833943,0.91455078125,1.85009765625,-0.189453125,-1.2359619140625,0.92315673828125,1.74713134765625,-28.03858363858364,37.03492063492063,32.236874236874236
45:31.800,-0.26708984375,0.501953125,1.943359375,5.3863525390625,-9.78851318359375,1.18255615234375,-25.489621489621488,32.98656898656898,-13.644444444444444,0.20703125,2.02587890625,-0.16162109375,-2.13623046875,-0.9613037109375,0.3814697265625,-8.546520146520146,-82.76630036630036,15.143833943833943,0.90576171875,1.8603515625,-0.1982421875,-1.2359619140625,0.92315673828125,1.74713134765625,-27.288888888888888,36.285225885225884,33.28644688644688
45:32.678,-0.30078125,0.587890625,1.94775390625,-2.0599365234375,6.3934326171875,-3.35693359375,-10.495726495726496,29.687912087912085,-9.446153846153846,0.2021484375,2.01708984375,-0.1650390625,-4.6234130859375,-0.2593994140625,1.861572265625,-6.447374847374848,-83.81587301587301,16.943101343101343,0.9072265625,1.85009765625,-0.20947265625,-1.12152099609375,0.7476806640625,1.861572265625,-27.288888888888888,36.285225885225884,33.28644688644688
45:33.506,-0.07861328125,0.94384765625,1.81787109375,0.48828125,-1.67083740234375,14.86968994140625,-15.893528693528692,29.83785103785104,-14.094261294261294,0.2060546875,2.0283203125,-0.2294921875,0.11444091796875,-2.5787353515625,1.9378662109375,-9.296214896214895,-83.06617826617827,15.893528693528692,0.908203125,1.86328125,-0.201171875,-0.83160400390625,0.0457763671875,2.7008056640625,-28.188522588522588,38.68424908424908,32.386813186813185
45:34.432,-0.2607421875,0.5869140625,1.93408203125,3.631591796875,-6.76727294921875,-4.60052490234375,-26.539194139194137,27.738705738705736,-14.394139194139193,0.21630859375,2.00634765625,-0.193359375,-3.3416748046875,3.082275390625,0.6103515625,-11.845177045177044,-80.96703296703296,14.544078144078144,0.91064453125,1.85107421875,-0.1953125,-0.9765625,0.89263916015625,2.06756591796875,-27.438827838827837,38.234432234432234,32.386813186813185
45:35.408,-0.29345703125,0.7490234375,1.90478515625,-4.5928955078125,5.889892578125,-3.7841796875,-10.195848595848595,29.238095238095237,-7.047130647130647,0.20654296875,2.0322265625,-0.1826171875,-6.5460205078125,1.51824951171875,2.1514892578125,-8.246642246642246,-83.06617826617827,15.893528693528692,0.912109375,1.84375,-0.21923828125,-0.762939453125,0.77056884765625,2.00653076171875,-28.03858363858364,37.03492063492063,33.28644688644688
45:36.285,-0.29345703125,0.7490234375,1.90478515625,-4.41741943359375,2.5177001953125,10.7421875,-13.194627594627594,29.088156288156288,-16.793162393162394,0.1982421875,2.02587890625,-0.21923828125,-3.12042236328125,-3.34930419921875,0.579833984375,-9.296214896214895,-79.76752136752137,12.444932844932845,0.90966796875,1.84814453125,-0.19873046875,-1.64031982421875,0.75531005859375,1.9989013671875,-27.738705738705736,39.883760683760684,33.28644688644688
45:37.211,-0.07861328125,1.1064453125,1.7802734375,5.1727294921875,-9.9945068359375,-8.0108642578125,-26.83907203907204,30.887423687423688,-12.294993894993894,0.212890625,2.03271484375,-0.12060546875,-2.86865234375,3.5400390625,1.38092041015625,-9.446153846153846,-83.66593406593407,15.443711843711844,0.9052734375,1.85302734375,-0.19482421875,-1.02996826171875,0.7781982421875,2.3651123046875,-27.438827838827837,38.234432234432234,31.637118437118435
45:38.089,-0.29833984375,0.51318359375,1.95068359375,5.1727294921875,-9.9945068359375,-8.0108642578125,-26.83907203907204,30.887423687423688,-12.294993894993894,0.18701171875,2.03076171875,-0.22802734375,-7.232666015625,1.79290771484375,2.655029296875,-7.197069597069596,-84.56556776556776,16.193406593406593,0.9130859375,1.84716796875,-0.1953125,-1.068115234375,1.007080078125,2.17437744140625,-27.738705738705736,38.084493284493284,32.236874236874236
45:38.917,-0.22705078125,0.69287109375,1.9228515625,-3.92913818359375,9.78851318359375,5.13458251953125,-6.447374847374848,26.98901098901099,-6.147496947496947,0.18701171875,2.03076171875,-0.22802734375,-1.19781494140625,-3.66973876953125,1.47247314453125,-7.646886446886446,-82.91623931623931,16.49328449328449,0.9130859375,1.84716796875,-0.1953125,-0.9002685546875,0.091552734375,2.84576416015625,-28.788278388278385,36.73504273504273,32.236874236874236
45:39.795,-0.08251953125,1.267578125,1.705078125,1.9683837890625,4.52423095703125,11.3372802734375,-17.39291819291819,29.537973137973136,-14.694017094017093,0.19091796875,2.0341796875,-0.166015625,-1.19781494140625,-3.66973876953125,1.47247314453125,-7.646886446886446,-82.91623931623931,16.49328449328449,0.90966796875,1.85205078125,-0.2109375,-0.9002685546875,0.091552734375,2.84576416015625,-28.788278388278385,36.73504273504273,32.236874236874236
45:40.624,-0.267578125,0.5,2.02197265625,0.19073486328125,-12.00103759765625,0.244140625,-30.587545787545785,31.787057387057384,-10.795604395604395,0.1962890625,2.03173828125,-0.17138671875,-3.79180908203125,1.62506103515625,0.12969970703125,-8.246642246642246,-83.06617826617827,15.143833943833943,0.91162109375,1.84033203125,-0.1875,-1.678466796875,0.72479248046875,2.1514892578125,-28.188522588522588,37.934554334554335,32.686691086691084
45:41.599,-0.30517578125,0.66162109375,1.88671875,-4.17327880859375,10.26153564453125,-1.8463134765625,-11.695238095238095,29.088156288156288,-9.596092796092796,0.205078125,2.02197265625,-0.2021484375,-7.04193115234375,2.4566650390625,2.61688232421875,-8.546520146520146,-83.51599511599511,16.64322344322344,0.9248046875,1.84619140625,-0.1982421875,-0.86212158203125,0.9765625,1.8157958984375,-28.03858363858364,35.985347985347985,31.187301587301587
45:42.476,-0.158203125,0.76318359375,1.869140625,1.9073486328125,-5.33294677734375,13.99993896484375,-17.992673992673993,31.936996336996337,-16.49328449328449,0.18017578125,2.02783203125,-0.20263671875,-1.312255859375,-2.4261474609375,0.80108642578125,-6.297435897435897,-82.91623931623931,17.093040293040293,0.9072265625,1.85498046875,-0.1962890625,-1.25885009765625,0.74005126953125,1.88446044921875,-28.03858363858364,36.285225885225884,31.487179487179485
45:43.256,-0.158203125,0.76318359375,1.869140625,-5.10406494140625,5.462646484375,0.518798828125,-22.79072039072039,31.787057387057384,-16.943101343101343,0.21337890625,2.01611328125,-0.16259765625,-1.007080078125,0.05340576171875,1.93023681640625,-8.396581196581197,-84.7155067155067,14.694017094017093,0.90771484375,1.84814453125,-0.2060546875,-1.15966796875,0.95367431640625,1.5716552734375,-28.638339438339436,37.634676434676436,32.386813186813185
45:44.134,-0.314453125,0.640625,1.92529296875,-5.10406494140625,5.462646484375,0.518798828125,-11.995115995115995,29.088156288156288,-13.044688644688645,0.240234375,2.015625,-0.24658203125,-0.396728515625,0.8392333984375,1.96075439453125,-8.246642246642246,-83.06617826617827,14.843956043956043,0.92529296875,1.845703125,-0.2001953125,-0.7781982421875,0.8087158203125,2.0904541015625,-26.83907203907204,37.934554334554335,32.08693528693529
45:45.060,0.00244140625,0.85009765625,1.783203125,-10.55908203125,7.049560546875,-1.8768310546875,-11.995115995115995,29.088156288156288,-13.044688644688645,0.2431640625,2.00439453125,-0.02099609375,2.46429443359375,0.28228759765625,0.98419189453125,-8.096703296703296,-84.7155067155067,16.043467643467643,0.90966796875,1.84423828125,-0.19482421875,-1.22833251953125,1.02996826171875,1.31988525390625,-28.338461538461537,37.03492063492063,32.98656898656898
45:45.938,-0.35205078125,0.67333984375,1.93603515625,7.904052734375,-2.288818359375,-5.74493408203125,-31.637118437118435,30.437606837606836,-11.095482295482295,0.2431640625,2.00439453125,-0.02099609375,2.46429443359375,0.28228759765625,0.98419189453125,-7.796825396825397,-83.06617826617827,16.943101343101343,0.90966796875,1.84423828125,-0.19482421875,-1.22833251953125,1.02996826171875,1.31988525390625,-27.438827838827837,36.88498168498168,33.13650793650793
45:46.717,-0.265625,0.876953125,1.87646484375,-7.843017578125,2.43377685546875,-17.23480224609375,-11.545299145299145,29.987789987789988,-10.495726495726496,0.2197265625,2.029296875,-0.1953125,-3.4332275390625,-0.03814697265625,-1.16729736328125,-7.796825396825397,-83.06617826617827,16.943101343101343,0.91796875,1.84228515625,-0.208984375,-0.9765625,0.83160400390625,2.0294189453125,-27.438827838827837,36.88498168498168,33.13650793650793
45:47.497,-0.39794921875,0.4873046875,1.9658203125,-1.9378662109375,0.95367431640625,7.72857666015625,-29.238095238095237,32.836630036630034,-17.242979242979242,0.2119140625,2.0126953125,-0.1171875,-0.80108642578125,-1.41143798828125,0.1983642578125,-9.296214896214895,-82.31648351648352,17.692796092796094,0.92041015625,1.85302734375,-0.20556640625,-1.4190673828125,0.55694580078125,1.68609619140625,-27.288888888888888,39.583882783882785,32.236874236874236
45:48.277,-0.39794921875,0.4873046875,1.9658203125,-1.922607421875,9.7503662109375,-7.22503662109375,-13.494505494505495,28.788278388278385,-9.596092796092796,0.224609375,2.02978515625,-0.1572265625,-6.4849853515625,1.41143798828125,1.12152099609375,-7.347008547008547,-82.91623931623931,17.54285714285714,0.90771484375,1.8525390625,-0.20361328125,-1.0833740234375,0.9918212890625,2.06756591796875,-26.98901098901099,38.53431013431013,32.536752136752135
45:49.155,-0.2783203125,0.67822265625,1.90087890625,-1.922607421875,9.7503662109375,-7.22503662109375,-16.64322344322344,31.337240537240536,-16.49328449328449,0.2216796875,2.01513671875,-0.22216796875,-0.8392333984375,-0.9765625,2.899169921875,-7.646886446886446,-83.66593406593407,14.694017094017093,0.8984375,1.85595703125,-0.19873046875,-1.434326171875,0.54168701171875,2.52532958984375,-28.788278388278385,38.53431013431013,31.936996336996337
45:49.984,-0.12060546875,1.10302734375,1.84326171875,10.955810546875,5.5999755859375,18.463134765625,-16.64322344322344,31.337240537240536,-16.49328449328449,0.2216796875,2.01513671875,-0.22216796875,-3.7689208984375,1.99127197265625,2.12860107421875,-7.796825396825397,-84.26568986568986,15.593650793650793,0.8984375,1.85595703125,-0.19873046875,-1.33514404296875,1.1749267578125,1.60980224609375,-28.638339438339436,37.634676434676436,32.686691086691084
45:50.812,-0.25048828125,0.36181640625,2.04931640625,2.58636474609375,-15.90728759765625,3.875732421875,-31.487179487179485,31.936996336996337,-15.443711843711844,0.23291015625,1.99169921875,-0.0810546875,-3.7689208984375,1.99127197265625,2.12860107421875,-8.546520146520146,-83.81587301587301,15.143833943833943,0.90380859375,1.85693359375,-0.1943359375,-1.33514404296875,1.1749267578125,1.60980224609375,-28.188522588522588,38.234432234432234,31.637118437118435
45:51.739,-0.02490234375,0.841796875,1.87451171875,-11.749267578125,0.11444091796875,-4.93621826171875,-8.546520146520146,28.488400488400487,-6.897191697191697,0.23779296875,2.03466796875,-0.22412109375,-2.9449462890625,-2.76947021484375,1.52587890625,-8.546520146520146,-83.81587301587301,15.143833943833943,0.90380859375,1.8544921875,-0.1953125,-1.22833251953125,1.13677978515625,1.74713134765625,-28.188522588522588,38.234432234432234,31.637118437118435
45:52.519,-0.26904296875,0.42626953125,2.0263671875,0.6866455078125,-11.016845703125,-0.579833984375,-34.485958485958484,29.987789987789988,-10.195848595848595,0.201171875,2.03076171875,-0.1513671875,-1.65557861328125,0.06866455078125,-1.07574462890625,-8.696459096459096,-83.36605616605617,16.793162393162394,0.904296875,1.86474609375,-0.19482421875,-1.33514404296875,0.83160400390625,2.17437744140625,-26.08937728937729,37.934554334554335,31.337240537240536
45:53.299,-0.26904296875,0.42626953125,2.0263671875,-0.3204345703125,6.805419921875,-9.6282958984375,-9.296214896214895,28.03858363858364,-9.296214896214895,0.20068359375,2.02734375,-0.25048828125,-6.08062744140625,0.26702880859375,1.2664794921875,-7.496947496947497,-82.76630036630036,16.193406593406593,0.90625,1.8505859375,-0.1962890625,-0.946044921875,0.67901611328125,1.94549560546875,-27.88864468864469,38.98412698412698,33.43638583638584
45:54.322,-0.13671875,0.94384765625,1.85986328125,4.852294921875,6.84356689453125,16.07513427734375,-20.841514041514042,30.887423687423688,-17.39291819291819,0.19189453125,2.0478515625,-0.26953125,-2.47955322265625,0.335693359375,2.28118896484375,-9.296214896214895,-82.01660561660562,15.143833943833943,0.8935546875,1.861328125,-0.18505859375,-1.44195556640625,0.46539306640625,2.86865234375,-26.539194139194137,38.084493284493284,32.98656898656898
45:55.102,-0.13671875,0.94384765625,1.85986328125,4.852294921875,6.84356689453125,16.07513427734375,-20.841514041514042,30.887423687423688,-17.39291819291819,0.23681640625,2.01123046875,-0.2001953125,-6.134033203125,5.43212890625,1.07574462890625,-6.897191697191697,-82.91623931623931,15.743589743589743,0.91357421875,1.853515625,-0.1982421875,-0.518798828125,0.8087158203125,2.03704833984375,-28.338461538461537,37.03492063492063,32.98656898656898
45:55.883,-0.20751953125,0.66748046875,1.97998046875,0.46539306640625,-11.72637939453125,-2.5787353515625,-29.83785103785104,32.536752136752135,-14.843956043956043,0.23681640625,2.01123046875,-0.2001953125,-6.134033203125,5.43212890625,1.07574462890625,-9.296214896214895,-83.06617826617827,14.094261294261294,0.91357421875,1.853515625,-0.1982421875,-0.518798828125,0.8087158203125,2.03704833984375,-28.03858363858364,37.03492063492063,31.936996336996337
45:56.662,-0.26611328125,0.853515625,1.8349609375,1.12152099609375,6.47735595703125,-4.14276123046875,-11.545299145299145,29.238095238095237,-8.396581196581197,0.18212890625,1.9951171875,-0.3623046875,-3.92913818359375,-0.17547607421875,2.51007080078125,-9.296214896214895,-83.06617826617827,14.094261294261294,0.91259765625,1.853515625,-0.19873046875,-1.13677978515625,0.72479248046875,2.40325927734375,-28.03858363858364,37.03492063492063,31.936996336996337
45:57.442,-0.2177734375,0.7705078125,1.87890625,-2.69317626953125,-7.568359375,12.03155517578125,-23.84029304029304,32.836630036630034,-17.692796092796094,0.19677734375,2.01953125,-0.32958984375,5.74493408203125,-4.11224365234375,1.07574462890625,-6.747252747252747,-82.01660561660562,14.094261294261294,0.90673828125,1.84716796875,-0.19775390625,-1.007080078125,0.8544921875,2.63214111328125,-27.438827838827837,37.18485958485958,34.186080586080585
45:58.222,-0.2177734375,0.7705078125,1.87890625,0.762939453125,5.34820556640625,1.83868408203125,-26.689133089133087,32.08693528693529,-13.944322344322345,0.22412109375,1.99072265625,-0.4267578125,1.41143798828125,5.60760498046875,3.44085693359375,-8.396581196581197,-83.36605616605617,15.443711843711844,0.91259765625,1.8515625,-0.19580078125,-1.64031982421875,1.41143798828125,0.0,-26.83907203907204,36.435164835164834,33.43638583638584
45:59.100,-0.32861328125,0.27880859375,2.0361328125,0.762939453125,5.34820556640625,1.83868408203125,-10.645665445665445,28.03858363858364,-8.246642246642246,0.24951171875,1.93115234375,-0.51171875,-4.5166015625,-3.2958984375,0.701904296875,-7.496947496947497,-84.26568986568986,12.744810744810744,0.89794921875,1.86376953125,-0.169921875,-0.60272216796875,0.67901611328125,2.716064453125,-28.93821733821734,37.634676434676436,32.08693528693529
46:00.026,-0.20361328125,0.90185546875,1.89599609375,1.31988525390625,1.5106201171875,-5.77545166015625,-10.645665445665445,28.03858363858364,-8.246642246642246,0.26171875,2.009765625,-0.31298828125,0.25177001953125,-3.18145751953125,0.1983642578125,-8.096703296703296,-83.66593406593407,13.944322344322345,0.89453125,1.861328125,-0.18994140625,-1.40380859375,0.885009765625,1.556396484375,-28.638339438339436,36.135286935286935,31.337240537240536
46:00.855,-0.3046875,0.43212890625,1.95849609375,3.08990478515625,-8.44573974609375,-11.474609375,-30.737484737484735,31.637118437118435,-16.043467643467643,0.26171875,2.009765625,-0.31298828125,0.25177001953125,-3.18145751953125,0.1983642578125,-8.096703296703296,-83.66593406593407,13.944322344322345,0.89453125,1.861328125,-0.18994140625,-1.40380859375,0.885009765625,1.556396484375,-28.638339438339436,36.135286935286935,31.337240537240536
46:01.635,-0.35693359375,0.71533203125,1.87060546875,-3.8604736328125,8.76617431640625,4.425048828125,-10.945543345543346,28.488400488400487,-8.546520146520146,0.2392578125,2.01220703125,-0.37744140625,-2.99835205078125,-2.78472900390625,2.95257568359375,-6.897191697191697,-83.36605616605617,12.894749694749695,0.8984375,1.859375,-0.18701171875,-0.63323974609375,0.8697509765625,2.22015380859375,-26.23931623931624,37.03492063492063,32.236874236874236
46:02.416,-0.00048828125,1.32958984375,1.6767578125,-9.9334716796875,3.96728515625,6.622314453125,-12.894749694749695,29.687912087912085,-12.444932844932845,0.255859375,1.97509765625,-0.4453125,-3.143310546875,-0.92315673828125,1.3885498046875,-7.496947496947497,-84.26568986568986,13.494505494505495,0.90380859375,1.86083984375,-0.17333984375,-1.2359619140625,0.16021728515625,1.7242431640625,-28.03858363858364,37.784615384615385,31.487179487179485
46:03.341,-0.125,0.0888671875,1.78955078125,-1.7852783203125,-2.655029296875,-9.11712646484375,-31.936996336996337,29.987789987789988,-12.444932844932845,0.244140625,1.98974609375,-0.35888671875,-4.34112548828125,3.21197509765625,1.13677978515625,-6.747252747252747,-82.76630036630036,13.494505494505495,0.89404296875,1.8564453125,-0.19287109375,-1.4495849609375,0.90789794921875,1.312255859375,-28.638339438339436,37.18485958485958,32.08693528693529
46:04.121,-0.125,0.0888671875,1.78955078125,-1.7852783203125,-2.655029296875,-9.11712646484375,-11.845177045177044,28.638339438339436,-6.447374847374848,0.22998046875,2.0185546875,-0.34912109375,-4.608154296875,2.86102294921875,0.0152587890625,-5.397802197802197,-83.81587301587301,15.593650793650793,0.8916015625,1.85888671875,-0.1845703125,-0.29754638671875,1.5869140625,1.739501953125,-26.539194139194137,36.73504273504273,31.487179487179485
46:04.901,-0.16015625,0.75732421875,1.8662109375,-10.24627685546875,-5.4931640625,-5.88226318359375,-11.845177045177044,28.638339438339436,-6.447374847374848,0.22998046875,2.0185546875,-0.34912109375,-4.608154296875,2.86102294921875,0.0152587890625,-7.646886446886446,-83.66593406593407,14.394139194139193,0.8916015625,1.85888671875,-0.1845703125,-0.29754638671875,1.5869140625,1.739501953125,-28.638339438339436,38.234432234432234,31.337240537240536
46:05.779,-0.16943359375,0.8125,1.85107421875,4.6539306640625,-12.3748779296875,13.7939453125,-25.489621489621488,30.587545787545785,-14.394139194139193,0.244140625,2.0087890625,-0.30126953125,0.3662109375,-3.70025634765625,2.044677734375,-7.646886446886446,-83.66593406593407,14.394139194139193,0.8994140625,1.86279296875,-0.17822265625,-0.99945068359375,0.58746337890625,2.41851806640625,-28.638339438339436,38.234432234432234,31.337240537240536
46:06.607,-0.18603515625,0.4755859375,1.97314453125,-2.7923583984375,3.36456298828125,-0.43487548828125,-27.588766788766787,30.587545787545785,-16.043467643467643,0.22216796875,1.99609375,-0.3388671875,-3.082275390625,2.05230712890625,1.68609619140625,-7.496947496947497,-84.56556776556776,15.143833943833943,0.904296875,1.85693359375,-0.18701171875,-1.30462646484375,1.15203857421875,1.53350830078125,-27.13894993894994,38.234432234432234,32.686691086691084
46:07.534,-0.0986328125,0.87939453125,1.82763671875,-7.78961181640625,8.99505615234375,-12.481689453125,-14.544078144078144,27.738705738705736,-13.344566544566543,0.251953125,2.01171875,-0.27587890625,-2.74658203125,-2.69317626953125,-0.5645751953125,-8.096703296703296,-84.4156288156288,13.944322344322345,0.88525390625,1.861328125,-0.18701171875,-0.946044921875,0.8392333984375,2.05230712890625,-26.98901098901099,37.33479853479853,30.437606837606836
46:08.412,-0.8427734375,0.6728515625,1.68896484375,9.86480712890625,-6.927490234375,7.14874267578125,-32.98656898656898,29.987789987789988,-11.095482295482295,0.23095703125,2.00048828125,-0.3203125,-0.396728515625,-1.91497802734375,0.2899169921875,-7.347008547008547,-85.46520146520146,15.443711843711844,0.88916015625,1.853515625,-0.18701171875,-0.98419189453125,0.37384033203125,2.13623046875,-28.638339438339436,38.98412698412698,32.686691086691084
46:09.302,-0.8427734375,0.6728515625,1.68896484375,13.885498046875,-170.8526611328125,19.15740966796875,-16.64322344322344,31.936996336996337,-25.639560439560437,0.22412109375,1.9990234375,-0.33935546875,-3.21197509765625,2.51007080078125,1.64794921875,-8.696459096459096,-83.66593406593407,13.644444444444444,0.8935546875,1.8544921875,-0.1845703125,-1.02996826171875,0.6866455078125,1.953125,-27.288888888888888,38.53431013431013,31.187301587301587
46:10.166,-1.27587890625,0.380859375,1.453125,13.885498046875,-170.8526611328125,19.15740966796875,-9.895970695970696,30.587545787545785,-29.088156288156288,0.26318359375,2.0146484375,-0.341796875,-5.5694580078125,-0.42724609375,1.3580322265625,-6.747252747252747,-82.31648351648352,13.494505494505495,0.9033203125,1.8642578125,-0.19091796875,-0.84686279296875,0.63323974609375,1.91497802734375,-27.738705738705736,37.03492063492063,33.28644688644688
46:11.044,0.1943359375,0.9609375,1.7470703125,-12.58087158203125,-12.9547119140625,6.55364990234375,-9.895970695970696,30.587545787545785,-29.088156288156288,0.26318359375,2.0146484375,-0.341796875,-0.22125244140625,-0.16021728515625,1.0986328125,-10.195848595848595,-83.66593406593407,11.545299145299145,0.9033203125,1.8642578125,-0.19091796875,-0.9307861328125,0.67138671875,2.105712890625,-28.788278388278385,37.03492063492063,32.236874236874236
46:11.873,0.212890625,0.54736328125,1.869140625,14.07623291015625,39.77203369140625,-8.4075927734375,-31.936996336996337,29.238095238095237,-12.145054945054945,0.25830078125,2.03369140625,-0.2373046875,-0.22125244140625,-0.16021728515625,1.0986328125,-9.146275946275946,-83.96581196581197,13.644444444444444,0.90234375,1.86962890625,-0.1806640625,-0.9307861328125,0.67138671875,2.105712890625,-28.638339438339436,38.234432234432234,31.637118437118435
46:12.653,0.1298828125,0.69482421875,1.88671875,-9.63592529296875,13.09967041015625,0.54168701171875,-19.49206349206349,28.788278388278385,-9.596092796092796,0.2744140625,2.00537109375,-0.24072265625,-4.73785400390625,0.9613037109375,0.54931640625,-9.146275946275946,-83.96581196581197,13.644444444444444,0.8984375,1.85009765625,-0.19482421875,-1.190185546875,0.74005126953125,1.678466796875,-28.638339438339436,38.234432234432234,31.637118437118435
46:13.433,0.23388671875,1.17041015625,1.67724609375,1.5411376953125,3.7994384765625,5.37872314453125,-15.443711843711844,26.389255189255188,-7.347008547008547,0.2724609375,2.01806640625,-0.27880859375,-5.31768798828125,-0.518798828125,1.7852783203125,-7.347008547008547,-83.96581196581197,15.443711843711844,0.91259765625,1.85546875,-0.18310546875,-0.74005126953125,0.4730224609375,2.0751953125,-29.088156288156288,36.73504273504273,31.936996336996337
46:14.213,0.23388671875,1.17041015625,1.67724609375,-4.73785400390625,-9.3536376953125,0.02288818359375,-31.637118437118435,27.88864468864469,-7.047130647130647,0.27783203125,2.00537109375,-0.21923828125,-0.244140625,-0.7476806640625,1.739501953125,-8.696459096459096,-84.7155067155067,12.894749694749695,0.8974609375,1.85595703125,-0.19189453125,-0.79345703125,0.885009765625,1.5716552734375,-26.83907203907204,38.234432234432234,32.386813186813185
46:14.993,0.1171875,0.7158203125,1.986328125,-4.73785400390625,-9.3536376953125,0.02288818359375,-31.637118437118435,27.88864468864469,-7.047130647130647,0.27783203125,2.00537109375,-0.21923828125,-5.79071044921875,0.8544921875,1.24359130859375,-6.297435897435897,-85.46520146520146,12.294993894993894,0.8974609375,1.85595703125,-0.19189453125,-1.1444091796875,0.823974609375,2.23541259765625,-28.188522588522588,37.934554334554335,33.43638583638584
46:15.773,-0.1611328125,0.978515625,1.80029296875,-11.3677978515625,13.85498046875,-7.75146484375,-15.743589743589743,28.93821733821734,-8.696459096459096,0.2841796875,2.0166015625,-0.30517578125,-5.79071044921875,0.8544921875,1.24359130859375,-6.297435897435897,-85.46520146520146,12.294993894993894,0.89892578125,1.85400390625,-0.1845703125,-1.1444091796875,0.823974609375,2.23541259765625,-28.188522588522588,37.934554334554335,33.43638583638584
46:16.650,0.0849609375,1.05078125,1.78759765625,2.93731689453125,-10.6658935546875,12.26043701171875,-31.787057387057384,30.587545787545785,-16.49328449328449,0.24853515625,2.0107421875,-0.328125,0.9002685546875,-3.39508056640625,2.4566650390625,-8.696459096459096,-85.46520146520146,13.944322344322345,0.88623046875,1.8671875,-0.1962890625,-1.19781494140625,0.67138671875,2.55584716796875,-26.08937728937729,37.634676434676436,33.13650793650793
46:17.430,0.1630859375,0.4892578125,1.9775390625,-5.43975830078125,-0.5035400390625,-1.39617919921875,-29.537973137973136,26.83907203907204,-17.692796092796094,0.24755859375,1.99560546875,-0.28466796875,3.0517578125,2.685546875,-1.52587890625,-8.546520146520146,-81.71672771672772,11.395360195360196,0.8837890625,1.859375,-0.17822265625,-1.52587890625,0.81634521484375,1.80816650390625,-28.638339438339436,38.98412698412698,32.686691086691084
46:18.259,0.1630859375,0.4892578125,1.9775390625,-4.1656494140625,5.79071044921875,-4.852294921875,-13.794383394383393,26.98901098901099,-7.197069597069596,0.2373046875,1.9814453125,-0.44140625,-5.24139404296875,0.0152587890625,2.044677734375,-8.096703296703296,-84.4156288156288,14.993894993894994,0.9267578125,1.83203125,-0.20361328125,-0.6866455078125,0.9307861328125,1.3885498046875,-28.93821733821734,37.18485958485958,33.13650793650793
46:19.136,0.08935546875,0.73291015625,1.90283203125,-4.1656494140625,5.79071044921875,-4.852294921875,-24.589987789987788,26.83907203907204,-9.746031746031745,0.201171875,1.9912109375,-0.4267578125,1.31988525390625,-3.23486328125,0.57220458984375,-6.597313797313797,-78.56800976800976,10.495726495726496,0.904296875,1.8564453125,-0.1923828125,-0.72479248046875,0.81634521484375,1.94549560546875,-29.238095238095237,39.433943833943836,33.73626373626374
46:19.965,0.2041015625,0.7392578125,2.08642578125,4.39453125,-3.5247802734375,8.68988037109375,-24.589987789987788,26.83907203907204,-9.746031746031745,0.201171875,1.9912109375,-0.4267578125,-3.7689208984375,1.922607421875,2.01416015625,-7.197069597069596,-83.81587301587301,13.794383394383393,0.904296875,1.8564453125,-0.1923828125,-0.79345703125,0.8392333984375,2.20489501953125,-28.188522588522588,37.18485958485958,31.037362637362637
46:20.843,-0.0283203125,0.5419921875,1.95654296875,-5.36346435546875,12.59613037109375,2.9754638671875,-27.88864468864469,27.288888888888888,-5.547741147741148,0.1904296875,1.99462890625,-0.3828125,-3.7689208984375,1.922607421875,2.01416015625,-7.197069597069596,-83.81587301587301,13.794383394383393,0.91162109375,1.85986328125,-0.19091796875,-0.79345703125,0.8392333984375,2.20489501953125,-28.188522588522588,37.18485958485958,31.037362637362637
46:21.623,0.341796875,0.59716796875,1.7900390625,6.20269775390625,3.34930419921875,1.312255859375,-14.394139194139193,28.188522588522588,-9.146275946275946,0.16357421875,2.0263671875,-0.404296875,-5.47027587890625,0.7171630859375,2.0599365234375,-8.396581196581197,-80.06739926739927,11.845177045177044,0.90625,1.85302734375,-0.189453125,-0.89263916015625,0.6256103515625,1.9989013671875,-26.539194139194137,39.583882783882785,33.58632478632479
46:22.403,0.17041015625,0.39599609375,1.982421875,-2.23541259765625,-5.2947998046875,-4.53948974609375,-26.83907203907204,26.689133089133087,-0.4498168498168498,0.20556640625,2.005859375,-0.39794921875,1.5106201171875,3.90625,-0.1373291015625,-6.597313797313797,-83.36605616605617,13.944322344322345,0.90673828125,1.8515625,-0.18896484375,-1.27410888671875,0.64849853515625,2.26593017578125,-29.83785103785104,39.13406593406593,31.936996336996337
46:23.231,0.17041015625,0.39599609375,1.982421875,-4.14276123046875,2.50244140625,-2.60162353515625,-13.194627594627594,24.14017094017094,-9.596092796092796,0.17431640625,1.9873046875,-0.43896484375,-4.791259765625,0.46539306640625,2.0904541015625,-5.697680097680098,-84.26568986568986,14.544078144078144,0.9091796875,1.8623046875,-0.18505859375,-1.27410888671875,1.13677978515625,1.5106201171875,-26.539194139194137,36.285225885225884,32.98656898656898
46:24.109,0.1484375,0.70947265625,1.95751953125,-4.14276123046875,2.50244140625,-2.60162353515625,-23.84029304029304,28.188522588522588,-5.697680097680098,0.1875,1.99609375,-0.333984375,-1.35040283203125,-2.6397705078125,-0.14495849609375,-7.496947496947497,-83.51599511599511,15.143833943833943,0.9013671875,1.857421875,-0.19970703125,-1.312255859375,0.95367431640625,1.94549560546875,-26.98901098901099,38.53431013431013,34.336019536019535
46:24.987,0.072265625,0.5400390625,1.96875,3.9520263671875,-11.05499267578125,4.50897216796875,-23.84029304029304,28.188522588522588,-5.697680097680098,0.1875,1.99609375,-0.333984375,-4.0130615234375,0.6561279296875,1.617431640625,-6.897191697191697,-83.66593406593407,14.694017094017093,0.9013671875,1.857421875,-0.19970703125,-1.02996826171875,0.81634521484375,1.77764892578125,-29.687912087912085,37.634676434676436,32.686691086691084
46:25.766,-0.015625,0.57177734375,1.9619140625,-5.45501708984375,17.7001953125,-2.166748046875,-19.34212454212454,27.13894993894994,-10.795604395604395,0.1953125,2.0166015625,-0.33740234375,-4.0130615234375,0.6561279296875,1.617431640625,-6.897191697191697,-83.66593406593407,14.694017094017093,0.91162109375,1.85205078125,-0.19970703125,-1.02996826171875,0.81634521484375,1.77764892578125,-29.687912087912085,37.634676434676436,32.686691086691084
46:26.546,-0.013671875,0.7333984375,1.96044921875,13.8397216796875,16.845703125,-0.95367431640625,-16.043467643467643,26.83907203907204,-9.446153846153846,0.1787109375,2.021484375,-0.3759765625,-8.514404296875,-6.59942626953125,1.91497802734375,-7.347008547008547,-85.16532356532356,14.694017094017093,0.91748046875,1.8447265625,-0.20263671875,-0.9918212890625,0.48065185546875,2.0599365234375,-28.188522588522588,38.234432234432234,33.13650793650793
46:27.375,-0.13037109375,0.51220703125,1.994140625,6.5765380859375,-12.420654296875,5.47027587890625,-28.338461538461537,31.637118437118435,-5.547741147741148,0.1845703125,2.017578125,-0.29345703125,-1.434326171875,-0.9613037109375,0.16021728515625,-6.897191697191697,-83.96581196581197,13.344566544566543,0.89599609375,1.85498046875,-0.1884765625,-1.220703125,1.04522705078125,1.45721435546875,-28.788278388278385,38.53431013431013,32.536752136752135
46:28.155,-0.13037109375,0.51220703125,1.994140625,6.5765380859375,-12.420654296875,5.47027587890625,-23.24053724053724,29.238095238095237,-10.195848595848595,0.18115234375,2.00048828125,-0.302734375,-2.37274169921875,1.39617919921875,1.5411376953125,-7.496947496947497,-82.76630036630036,15.143833943833943,0.904296875,1.84716796875,-0.20166015625,-1.07574462890625,0.78582763671875,1.8310546875,-29.687912087912085,38.98412698412698,31.337240537240536
46:28.984,0.123046875,0.5576171875,1.943359375,-4.180908203125,8.056640625,-4.364013671875,-23.24053724053724,29.238095238095237,-10.195848595848595,0.18115234375,2.00048828125,-0.302734375,0.8392333984375,-4.1656494140625,0.26702880859375,-6.447374847374848,-84.26568986568986,14.544078144078144,0.904296875,1.84716796875,-0.20166015625,-0.9002685546875,0.41961669921875,2.0294189453125,-26.539194139194137,37.33479853479853,32.536752136752135
46:29.764,0.26953125,0.689453125,1.85595703125,-4.17327880859375,0.152587890625,0.48065185546875,-20.24175824175824,26.689133089133087,-6.147496947496947,0.16845703125,1.99951171875,-0.38134765625,0.8392333984375,-4.1656494140625,0.26702880859375,-6.447374847374848,-84.26568986568986,14.544078144078144,0.904296875,1.857421875,-0.189453125,-0.9002685546875,0.41961669921875,2.0294189453125,-26.539194139194137,37.33479853479853,32.536752136752135
46:30.544,0.03125,0.46533203125,2.01318359375,-4.00543212890625,5.279541015625,0.34332275390625,-23.99023199023199,28.788278388278385,-4.1982905982905985,0.18359375,2.01806640625,-0.2880859375,-3.7994384765625,1.556396484375,1.0986328125,-7.646886446886446,-82.16654456654456,12.894749694749695,0.89404296875,1.857421875,-0.2001953125,-1.24359130859375,1.01470947265625,1.7547607421875,-28.188522588522588,38.234432234432234,33.13650793650793
46:31.324,0.11181640625,0.708984375,1.90576171875,7.51495361328125,14.93072509765625,-1.7547607421875,-16.043467643467643,28.188522588522588,-6.447374847374848,0.15771484375,1.9853515625,-0.4677734375,-4.14276123046875,-2.46429443359375,1.15203857421875,-7.197069597069596,-82.76630036630036,14.094261294261294,0.904296875,1.8505859375,-0.19384765625,-1.2359619140625,0.79345703125,2.2735595703125,-27.738705738705736,37.33479853479853,32.236874236874236
46:32.104,0.11181640625,0.708984375,1.90576171875,7.51495361328125,14.93072509765625,-1.7547607421875,-26.83907203907204,27.288888888888888,-5.847619047619047,0.19287109375,2.01708984375,-0.380859375,-1.70135498046875,-1.1138916015625,0.89263916015625,-7.347008547008547,-84.7155067155067,13.344566544566543,0.9072265625,1.845703125,-0.2080078125,-0.8697509765625,0.6256103515625,1.80816650390625,-28.93821733821734,37.634676434676436,32.386813186813185
46:33.079,0.13232421875,0.47607421875,1.9501953125,1.28936767578125,-6.98089599609375,0.17547607421875,-26.83907203907204,27.288888888888888,-5.847619047619047,0.1845703125,2.0029296875,-0.30517578125,-7.38525390625,2.1514892578125,0.6256103515625,-7.646886446886446,-85.16532356532356,14.694017094017093,0.90185546875,1.85693359375,-0.1904296875,-0.98419189453125,0.946044921875,1.83868408203125,-28.338461538461537,37.784615384615385,33.58632478632479
46:33.908,0.11279296875,0.62353515625,1.951171875,-0.98419189453125,4.76837158203125,-4.08172607421875,-16.343345543345542,29.088156288156288,-6.147496947496947,0.1845703125,2.0029296875,-0.30517578125,-7.38525390625,2.1514892578125,0.6256103515625,-8.546520146520146,-83.81587301587301,15.143833943833943,0.90185546875,1.85693359375,-0.1904296875,-0.98419189453125,0.946044921875,1.83868408203125,-27.88864468864469,34.635897435897434,32.08693528693529
46:34.736,0.22119140625,0.74951171875,1.935546875,0.9002685546875,1.5411376953125,7.25555419921875,-16.943101343101343,28.488400488400487,-9.596092796092796,0.19091796875,2.01513671875,-0.31884765625,2.349853515625,-2.26593017578125,-0.16021728515625,-8.546520146520146,-83.81587301587301,15.143833943833943,0.9013671875,1.85693359375,-0.189453125,-1.0833740234375,0.701904296875,1.64794921875,-27.88864468864469,34.635897435897434,32.08693528693529
46:35.516,-0.06005859375,0.49951171875,2.015625,-1.16729736328125,3.2501220703125,-1.06048583984375,-27.288888888888888,28.488400488400487,-5.547741147741148,0.22607421875,2.0078125,-0.27392578125,-2.81524658203125,3.05938720703125,1.33514404296875,-7.197069597069596,-82.76630036630036,15.593650793650793,0.90087890625,1.86181640625,-0.19384765625,-0.96893310546875,1.068115234375,1.708984375,-26.83907203907204,36.135286935286935,33.43638583638584
46:36.358,0.029296875,0.80029296875,1.8876953125,0.05340576171875,5.279541015625,-2.95257568359375,-13.794383394383393,27.288888888888888,-5.547741147741148,0.1796875,1.97900390625,-0.3642578125,-2.960205078125,-1.96075439453125,1.83868408203125,-7.646886446886446,-83.36605616605617,13.944322344322345,0.9150390625,1.8486328125,-0.19677734375,-1.1749267578125,0.732421875,1.97601318359375,-28.638339438339436,37.634676434676436,32.386813186813185
46:37.174,0.029296875,0.80029296875,1.8876953125,0.05340576171875,5.279541015625,-2.95257568359375,-28.03858363858364,27.88864468864469,-11.095482295482295,0.18408203125,2.01220703125,-0.369140625,-0.14495849609375,-1.13677978515625,1.13677978515625,-8.546520146520146,-82.76630036630036,13.494505494505495,0.90234375,1.85498046875,-0.19677734375,-0.701904296875,0.48828125,2.46429443359375,-26.389255189255188,36.88498168498168,31.637118437118435
46:37.954,0.00634765625,0.5419921875,1.95166015625,-4.20379638671875,7.4920654296875,16.998291015625,-28.03858363858364,27.88864468864469,-11.095482295482295,0.18408203125,2.01220703125,-0.369140625,-0.14495849609375,-1.13677978515625,1.13677978515625,-7.347008547008547,-83.66593406593407,13.644444444444444,0.90234375,1.85498046875,-0.19677734375,-0.701904296875,0.48828125,2.46429443359375,-27.738705738705736,37.784615384615385,32.536752136752135
46:38.734,-0.03466796875,0.5185546875,1.984375,-3.9520263671875,6.805419921875,0.3509521484375,-24.44004884004884,29.088156288156288,-9.596092796092796,0.19677734375,1.99951171875,-0.3515625,-4.37164306640625,2.716064453125,0.99945068359375,-7.347008547008547,-83.66593406593407,13.644444444444444,0.90966796875,1.85498046875,-0.19580078125,-1.13677978515625,1.06048583984375,1.678466796875,-27.738705738705736,37.784615384615385,32.536752136752135
46:39.514,0.0537109375,0.64697265625,1.99853515625,2.99072265625,1.8310546875,0.4119873046875,-15.443711843711844,27.588766788766787,-8.696459096459096,0.1806640625,1.99951171875,-0.4130859375,-4.50897216796875,-2.90679931640625,0.37384033203125,-7.496947496947497,-83.81587301587301,13.794383394383393,0.90771484375,1.84716796875,-0.18359375,-0.946044921875,0.77056884765625,1.85394287109375,-28.03858363858364,37.33479853479853,32.536752136752135
46:40.294,0.0537109375,0.64697265625,1.99853515625,-4.70733642578125,9.5672607421875,1.251220703125,-27.588766788766787,28.788278388278385,-7.946764346764346,0.2001953125,2.015625,-0.2939453125,-2.8228759765625,1.70135498046875,1.220703125,-6.297435897435897,-83.66593406593407,13.344566544566543,0.9052734375,1.8486328125,-0.1923828125,-1.22833251953125,0.91552734375,1.52587890625,-27.13894993894994,36.88498168498168,31.337240537240536
46:41.123,-0.12841796875,0.52490234375,1.9140625,-4.70733642578125,9.5672607421875,1.251220703125,-13.344566544566543,28.188522588522588,-9.146275946275946,0.1875,2.0068359375,-0.37646484375,-5.2032470703125,-0.30517578125,2.7008056640625,-7.197069597069596,-83.81587301587301,14.843956043956043,0.91162109375,1.8505859375,-0.19091796875,-0.885009765625,0.72479248046875,2.2430419921875,-29.687912087912085,38.234432234432234,32.386813186813185
46:41.903,0.0380859375,0.72509765625,1.90087890625,-3.2196044921875,4.1046142578125,-1.7242431640625,-13.344566544566543,28.188522588522588,-9.146275946275946,0.1875,2.0068359375,-0.37646484375,-0.87738037109375,-1.54876708984375,-1.68609619140625,-6.897191697191697,-84.4156288156288,13.644444444444444,0.91162109375,1.8505859375,-0.19091796875,-1.068115234375,0.640869140625,2.38800048828125,-28.188522588522588,37.18485958485958,32.686691086691084
46:42.780,0.068359375,0.74609375,1.91552734375,-1.0833740234375,-23.79608154296875,9.918212890625,-25.03980463980464,26.98901098901099,-12.744810744810744,0.20166015625,2.0,-0.30419921875,-0.87738037109375,-1.54876708984375,-1.68609619140625,-6.897191697191697,-84.4156288156288,13.644444444444444,0.912109375,1.8447265625,-0.19677734375,-1.068115234375,0.640869140625,2.38800048828125,-28.188522588522588,37.18485958485958,32.686691086691084
46:43.560,0.0126953125,0.33984375,2.0322265625,-4.8980712890625,4.08935546875,-2.34222412109375,-22.04102564102564,29.238095238095237,-10.795604395604395,0.19482421875,2.0087890625,-0.28564453125,-3.53240966796875,3.28826904296875,0.6256103515625,-7.197069597069596,-82.76630036630036,13.794383394383393,0.91552734375,1.85302734375,-0.20556640625,-1.44195556640625,1.30462646484375,0.9765625,-28.93821733821734,37.18485958485958,31.337240537240536
46:44.438,0.15771484375,0.5,1.9140625,-0.6103515625,8.96453857421875,1.44195556640625,-18.742368742368743,26.689133089133087,-7.946764346764346,0.1611328125,2.01416015625,-0.32275390625,-5.8746337890625,-2.4261474609375,2.05230712890625,-7.197069597069596,-83.81587301587301,13.794383394383393,0.916015625,1.84033203125,-0.201171875,-0.75531005859375,0.64849853515625,1.77001953125,-26.98901098901099,37.784615384615385,33.88620268620269
46:45.266,0.15771484375,0.5,1.9140625,-4.4097900390625,-7.46917724609375,5.65338134765625,-23.39047619047619,28.03858363858364,-5.847619047619047,0.18994140625,2.005859375,-0.27685546875,0.42724609375,-1.67083740234375,-0.946044921875,-7.646886446886446,-82.91623931623931,14.394139194139193,0.9169921875,1.85205078125,-0.2041015625,-1.312255859375,0.60272216796875,1.74713134765625,-28.93821733821734,37.18485958485958,31.337240537240536
46:46.144,0.09716796875,0.71826171875,1.9072265625,-4.4097900390625,-7.46917724609375,5.65338134765625,-22.49084249084249,29.987789987789988,-9.146275946275946,0.19775390625,2.02783203125,-0.2412109375,-6.78253173828125,0.98419189453125,1.739501953125,-8.996336996336996,-84.26568986568986,14.544078144078144,0.9150390625,1.8447265625,-0.2177734375,-1.4801025390625,0.66375732421875,1.7242431640625,-27.438827838827837,36.88498168498168,32.08693528693529
46:47.265,-0.18701171875,0.3994140625,2.0341796875,-2.03704833984375,0.1220703125,1.983642578125,-16.64322344322344,27.288888888888888,-10.345787545787545,0.15478515625,2.03564453125,-0.35009765625,-0.2593994140625,-3.173828125,0.1220703125,-7.796825396825397,-85.01538461538462,14.843956043956043,0.904296875,1.85693359375,-0.19921875,-0.55694580078125,-0.00762939453125,3.04412841796875,-28.338461538461537,37.784615384615385,31.936996336996337
46:48.143,0.283203125,0.80517578125,1.87109375,-2.03704833984375,0.1220703125,1.983642578125,-26.389255189255188,25.78949938949939,0.4498168498168498,0.18603515625,2.01171875,-0.25732421875,-1.5869140625,2.3345947265625,0.579833984375,-8.096703296703296,-83.96581196581197,14.993894993894994,0.90576171875,1.85986328125,-0.2001953125,-1.51824951171875,1.21307373046875,1.67083740234375,-27.738705738705736,37.33479853479853,29.83785103785104
46:48.972,0.15234375,0.416015625,2.03857421875,-2.4566650390625,1.251220703125,-3.143310546875,-26.389255189255188,25.78949938949939,0.4498168498168498,0.18603515625,2.01171875,-0.25732421875,-5.98907470703125,-3.1585693359375,3.4027099609375,-7.646886446886446,-83.66593406593407,14.694017094017093,0.90576171875,1.85986328125,-0.2001953125,-1.0223388671875,0.701904296875,2.08282470703125,-28.638339438339436,37.934554334554335,31.637118437118435
46:49.800,0.19384765625,0.61376953125,1.9384765625,0.05340576171875,3.30352783203125,3.04412841796875,-14.694017094017093,28.188522588522588,-4.048351648351648,0.1640625,2.02734375,-0.3154296875,-5.98907470703125,-3.1585693359375,3.4027099609375,-7.646886446886446,-83.66593406593407,14.694017094017093,0.90771484375,1.849609375,-0.1953125,-1.0223388671875,0.701904296875,2.08282470703125,-28.788278388278385,36.73504273504273,32.98656898656898
46:50.775,0.2431640625,0.44921875,1.96337890625,0.17547607421875,-13.3819580078125,2.410888671875,-28.788278388278385,27.13894993894994,-2.249084249084249,0.18701171875,2.0234375,-0.27099609375,0.762939453125,-0.885009765625,-0.26702880859375,-6.747252747252747,-83.51599511599511,15.143833943833943,0.90966796875,1.84716796875,-0.1875,-0.8697509765625,0.78582763671875,1.51824951171875,-28.788278388278385,36.73504273504273,32.98656898656898
46:51.604,-0.0966796875,0.693359375,1.88671875,-1.67083740234375,15.228271484375,-7.10296630859375,-18.59242979242979,27.13894993894994,-6.747252747252747,0.17333984375,2.02197265625,-0.35595703125,-3.8909912109375,0.60272216796875,2.8228759765625,-8.246642246642246,-83.81587301587301,15.143833943833943,0.9111328125,1.8544921875,-0.20166015625,-1.15203857421875,0.89263916015625,1.7547607421875,-28.03858363858364,37.03492063492063,32.536752136752135
46:52.433,-1.65283203125,0.544921875,0.98876953125,-13.1683349609375,-9.9639892578125,9.7808837890625,-20.841514041514042,29.537973137973136,-11.995115995115995,0.18896484375,2.013671875,-0.37353515625,2.73895263671875,-4.791259765625,0.5950927734375,-8.546520146520146,-83.06617826617827,13.494505494505495,0.9130859375,1.84814453125,-0.1982421875,-1.0223388671875,0.22125244140625,2.41851806640625,-28.188522588522588,37.934554334554335,33.13650793650793
46:53.310,-0.703125,0.55908203125,1.91748046875,4.08935546875,-23.12469482421875,4.53948974609375,-27.288888888888888,42.28278388278388,-50.22954822954823,0.1962890625,2.00048828125,-0.3408203125,-3.18145751953125,1.96075439453125,-0.2899169921875,-7.796825396825397,-84.26568986568986,15.593650793650793,0.9091796875,1.857421875,-0.19921875,-0.89263916015625,0.95367431640625,1.8310546875,-28.788278388278385,38.53431013431013,32.98656898656898
46:54.237,-0.703125,0.55908203125,1.91748046875,5.5389404296875,30.86090087890625,-11.7340087890625,-8.846398046398047,28.788278388278385,-15.143833943833943,0.15087890625,1.9990234375,-0.3740234375,-3.94439697265625,-3.41796875,0.61798095703125,-7.197069597069596,-82.76630036630036,14.094261294261294,0.91796875,1.8447265625,-0.19482421875,-1.0223388671875,0.7476806640625,1.89971923828125,-28.338461538461537,36.285225885225884,30.887423687423688
46:55.017,-0.40576171875,0.86181640625,1.837890625,5.5389404296875,30.86090087890625,-11.7340087890625,-8.846398046398047,28.788278388278385,-15.143833943833943,0.15087890625,1.9990234375,-0.3740234375,-0.93841552734375,1.51824951171875,1.3580322265625,-7.496947496947497,-83.06617826617827,15.143833943833943,0.91796875,1.8447265625,-0.19482421875,-0.885009765625,0.6256103515625,1.922607421875,-27.13894993894994,36.435164835164834,32.386813186813185
46:55.797,-0.0791015625,0.47802734375,1.98828125,5.401611328125,4.486083984375,-5.21087646484375,-28.788278388278385,33.58632478632479,-10.795604395604395,0.185546875,2.00830078125,-0.34521484375,-0.93841552734375,1.51824951171875,1.3580322265625,-7.496947496947497,-83.06617826617827,15.143833943833943,0.912109375,1.84228515625,-0.19921875,-0.885009765625,0.6256103515625,1.922607421875,-27.13894993894994,36.435164835164834,32.386813186813185
46:56.626,-0.22509765625,0.7568359375,1.93701171875,-0.87738037109375,-1.02996826171875,-5.0048828125,-13.194627594627594,27.738705738705736,-9.296214896214895,0.21435546875,1.99609375,-0.3681640625,-5.37872314453125,1.28173828125,1.06048583984375,-5.547741147741148,-82.61636141636141,14.394139194139193,0.9130859375,1.841796875,-0.21533203125,-0.79345703125,0.6103515625,1.678466796875,-28.638339438339436,38.234432234432234,33.13650793650793
46:57.454,-0.18310546875,0.91259765625,1.8837890625,3.04412841796875,-5.10406494140625,17.4407958984375,-22.49084249084249,29.987789987789988,-16.943101343101343,0.21484375,1.9912109375,-0.38134765625,0.885009765625,-3.24249267578125,1.4190673828125,-5.097924297924298,-84.7155067155067,14.694017094017093,0.9033203125,1.84521484375,-0.189453125,-1.3580322265625,0.5340576171875,2.25067138671875,-27.288888888888888,37.33479853479853,32.98656898656898
46:58.234,-0.18310546875,0.91259765625,1.8837890625,0.0762939453125,0.8697509765625,-0.70953369140625,-25.78949938949939,30.137728937728937,-10.645665445665445,0.171875,2.00390625,-0.3544921875,-4.6234130859375,2.9296875,-0.1983642578125,-9.895970695970696,-81.86666666666666,12.594871794871795,0.90625,1.85498046875,-0.1962890625,-1.02996826171875,1.15966796875,1.35040283203125,-27.288888888888888,36.73504273504273,32.98656898656898
46:59.160,-0.27685546875,0.27734375,2.08154296875,0.0762939453125,0.8697509765625,-0.70953369140625,-10.195848595848595,29.687912087912085,-10.195848595848595,0.18017578125,1.9765625,-0.4326171875,-4.7149658203125,-3.08990478515625,3.021240234375,-6.897191697191697,-83.66593406593407,16.043467643467643,0.93408203125,1.84033203125,-0.201171875,-0.6103515625,0.08392333984375,2.69317626953125,-28.03858363858364,37.784615384615385,33.28644688644688
47:00.233,-0.18505859375,0.91015625,1.87744140625,1.9683837890625,-3.0670166015625,3.997802734375,-28.03858363858364,32.08693528693529,-12.145054945054945,0.197265625,2.0166015625,-0.36328125,-0.9765625,-2.08282470703125,-0.7781982421875,-8.246642246642246,-84.26568986568986,13.494505494505495,0.923828125,1.84814453125,-0.19580078125,-0.6103515625,1.19781494140625,1.97601318359375,-29.537973137973136,37.33479853479853,32.536752136752135
47:01.354,-0.20947265625,0.52587890625,1.958984375,-1.617431640625,0.34332275390625,-1.47247314453125,-19.34212454212454,29.238095238095237,-12.894749694749695,0.20556640625,2.00048828125,-0.298828125,-6.1492919921875,3.1890869140625,0.57220458984375,-8.096703296703296,-83.66593406593407,14.394139194139193,0.91845703125,1.83642578125,-0.22119140625,-1.18255615234375,1.10626220703125,1.4495849609375,-28.338461538461537,38.084493284493284,31.936996336996337
47:02.232,-0.20947265625,0.52587890625,1.958984375,2.60162353515625,11.60430908203125,15.8538818359375,-16.49328449328449,25.78949938949939,-19.042246642246642,0.1728515625,2.0078125,-0.38916015625,0.40435791015625,-1.91497802734375,1.73187255859375,-7.347008547008547,-82.16654456654456,14.993894993894994,0.91357421875,1.8447265625,-0.2001953125,-1.2969970703125,0.46539306640625,2.197265625,-28.188522588522588,37.934554334554335,31.637118437118435
47:03.304,-0.24951171875,0.4599609375,1.9736328125,-2.14385986328125,4.4097900390625,0.3814697265625,-31.037362637362637,30.137728937728937,-8.546520146520146,0.22998046875,1.9970703125,-0.26513671875,-4.06646728515625,2.227783203125,2.57110595703125,-6.447374847374848,-83.51599511599511,14.544078144078144,0.91943359375,1.84423828125,-0.2119140625,-0.946044921875,1.007080078125,1.46484375,-26.83907203907204,37.18485958485958,32.686691086691084
47:04.670,-0.10888671875,0.796875,1.93359375,-12.451171875,1.71661376953125,1.7547607421875,-12.294993894993894,25.03980463980464,-14.244200244200243,0.1982421875,2.0322265625,-0.33154296875,-5.60760498046875,-3.37982177734375,0.244140625,-8.696459096459096,-83.66593406593407,13.944322344322345,0.91650390625,1.8505859375,-0.2099609375,-0.95367431640625,1.0986328125,1.9989013671875,-29.088156288156288,38.53431013431013,32.236874236874236
47:05.790,-0.04931640625,0.30419921875,1.6884765625,6.134033203125,11.16180419921875,-1.10626220703125,-32.98656898656898,31.487179487179485,-9.146275946275946,0.20654296875,2.02001953125,-0.2431640625,-1.22833251953125,0.11444091796875,-0.274658203125,-9.146275946275946,-83.96581196581197,14.394139194139193,0.9111328125,1.84912109375,-0.20654296875,-1.0223388671875,0.823974609375,2.05230712890625,-29.088156288156288,38.53431013431013,32.236874236874236
47:06.619,-0.15478515625,0.67724609375,1.9345703125,-3.7384033203125,3.936767578125,-8.81195068359375,-14.694017094017093,29.687912087912085,-9.446153846153846,0.2109375,2.03759765625,-0.29248046875,-6.378173828125,0.89263916015625,2.14385986328125,-8.246642246642246,-84.26568986568986,16.193406593406593,0.9140625,1.84375,-0.20166015625,-0.96893310546875,0.81634521484375,2.13623046875,-27.738705738705736,37.33479853479853,33.28644688644688
47:07.692,-0.0029296875,0.9169921875,1.85400390625,2.716064453125,5.7830810546875,10.78033447265625,-25.33968253968254,30.737484737484735,-17.692796092796094,0.23095703125,2.01806640625,-0.28955078125,1.22833251953125,-4.1351318359375,0.2288818359375,-8.546520146520146,-86.06495726495726,14.544078144078144,0.91552734375,1.8544921875,-0.193359375,-0.9307861328125,0.46539306640625,2.1820068359375,-27.738705738705736,37.33479853479853,33.28644688644688
47:08.618,-0.1904296875,0.62646484375,1.9130859375,-5.42449951171875,6.15692138671875,0.52642822265625,-29.388034188034187,30.887423687423688,-12.294993894993894,0.2158203125,2.00048828125,-0.21728515625,-5.71441650390625,1.15966796875,2.37274169921875,-6.747252747252747,-82.31648351648352,15.593650793650793,0.91845703125,1.8466796875,-0.20654296875,-0.9613037109375,1.16729736328125,1.36566162109375,-28.788278388278385,37.33479853479853,32.536752136752135
47:09.544,-0.0615234375,0.8388671875,1.84619140625,17.29583740234375,-1.9073486328125,17.15850830078125,-15.293772893772893,28.03858363858364,-13.644444444444444,0.22314453125,2.0107421875,-0.3193359375,-0.457763671875,-1.8463134765625,2.2125244140625,-8.396581196581197,-83.66593406593407,15.743589743589743,0.904296875,1.84716796875,-0.2099609375,-0.701904296875,0.3509521484375,2.1209716796875,-27.13894993894994,38.98412698412698,32.08693528693529
47:10.470,-0.3251953125,0.56640625,1.94287109375,-0.38909912109375,0.45013427734375,-1.9378662109375,-34.036141636141636,29.238095238095237,-10.795604395604395,0.2275390625,2.01025390625,-0.2509765625,-4.96673583984375,3.3111572265625,1.42669677734375,-7.796825396825397,-83.81587301587301,14.094261294261294,0.91943359375,1.84814453125,-0.197265625,-1.28173828125,1.02996826171875,1.33514404296875,-28.03858363858364,38.83418803418803,32.236874236874236
47:11.495,0.02734375,0.68896484375,1.75830078125,-10.50567626953125,14.30511474609375,-1.129150390625,-13.494505494505495,29.088156288156288,-14.394139194139193,0.16015625,2.02099609375,-0.3486328125,-1.77764892578125,0.52642822265625,-3.6468505859375,-8.096703296703296,-83.36605616605617,15.443711843711844,0.90576171875,1.84326171875,-0.2060546875,-0.9307861328125,-0.18310546875,2.67791748046875,-28.93821733821734,37.634676434676436,32.08693528693529
47:12.470,-0.26123046875,0.4677734375,1.9150390625,-2.02178955078125,-16.754150390625,-1.15203857421875,-28.788278388278385,31.037362637362637,-5.997557997557998,0.193359375,2.01806640625,-0.3037109375,-1.5869140625,3.662109375,0.48828125,-6.297435897435897,-83.96581196581197,14.993894993894994,0.90771484375,1.84814453125,-0.19873046875,-1.09100341796875,0.67138671875,2.00653076171875,-28.788278388278385,37.33479853479853,33.58632478632479
47:13.932,-0.1552734375,0.8427734375,1.85595703125,-0.518798828125,8.76617431640625,-5.4931640625,-10.495726495726496,29.687912087912085,-8.696459096459096,0.1611328125,2.001953125,-0.3720703125,-0.78582763671875,-1.0986328125,0.396728515625,-7.197069597069596,-82.76630036630036,16.193406593406593,0.904296875,1.84912109375,-0.203125,-0.92315673828125,0.6103515625,2.2430419921875,-28.788278388278385,37.03492063492063,32.98656898656898
47:15.004,-0.14208984375,0.58935546875,1.93212890625,1.3580322265625,-4.52423095703125,5.91278076171875,-26.83907203907204,32.686691086691084,-14.394139194139193,0.16943359375,1.998046875,-0.306640625,-6.134033203125,2.18963623046875,2.4261474609375,-8.396581196581197,-83.66593406593407,14.993894993894994,0.90673828125,1.8505859375,-0.19091796875,-1.19781494140625,0.67901611328125,1.71661376953125,-27.438827838827837,37.934554334554335,31.037362637362637
47:15.980,-0.03759765625,0.5078125,1.98486328125,-2.960205078125,7.32421875,-0.9765625,-20.24175824175824,30.137728937728937,-15.443711843711844,0.1689453125,2.01513671875,-0.2958984375,2.46429443359375,-2.6092529296875,0.518798828125,-5.997557997557998,-83.51599511599511,14.094261294261294,0.927734375,1.84375,-0.20263671875,-0.69427490234375,0.05340576171875,2.47955322265625,-28.93821733821734,37.634676434676436,32.386813186813185
47:17.247,0.0673828125,1.09033203125,1.8232421875,-0.25177001953125,-26.153564453125,-6.8359375,-31.487179487179485,31.936996336996337,-7.646886446886446,0.16748046875,2.037109375,-0.27587890625,-1.373291015625,4.73785400390625,1.36566162109375,-6.747252747252747,-81.26691086691086,13.794383394383393,0.8984375,1.84765625,-0.1962890625,-1.15966796875,1.53350830078125,0.96893310546875,-26.98901098901099,38.084493284493284,33.28644688644688
47:18.124,-0.18310546875,0.5185546875,1.990234375,-0.25177001953125,-26.153564453125,-6.8359375,-16.49328449328449,30.737484737484735,-12.444932844932845,0.19580078125,1.98974609375,-0.294921875,-6.072998046875,-1.8463134765625,3.7689208984375,-7.646886446886446,-84.4156288156288,15.743589743589743,0.93505859375,1.83251953125,-0.22705078125,-0.7476806640625,0.31280517578125,2.0599365234375,-27.738705738705736,38.83418803418803,32.98656898656898
47:19.100,-0.171875,0.84814453125,1.8642578125,0.0,0.40435791015625,-5.91278076171875,-16.49328449328449,30.737484737484735,-12.444932844932845,0.15966796875,2.0146484375,-0.29248046875,1.04522705078125,0.74005126953125,-1.0223388671875,-8.246642246642246,-81.71672771672772,14.094261294261294,0.9267578125,1.84619140625,-0.2119140625,-1.0223388671875,0.64849853515625,1.88446044921875,-26.539194139194137,36.73504273504273,32.98656898656898
47:19.928,-0.029296875,0.80517578125,1.927734375,5.08880615234375,-3.42559814453125,5.645751953125,-26.539194139194137,31.337240537240536,-17.39291819291819,0.15966796875,2.0146484375,-0.29248046875,1.04522705078125,0.74005126953125,-1.0223388671875,-8.096703296703296,-83.36605616605617,14.694017094017093,0.9267578125,1.84619140625,-0.2119140625,-0.72479248046875,1.19781494140625,1.5716552734375,-28.338461538461537,38.084493284493284,32.98656898656898
47:20.855,-0.279296875,0.46728515625,1.9794921875,-4.0435791015625,0.5645751953125,1.983642578125,-25.78949938949939,32.386813186813185,-11.995115995115995,0.17822265625,2.01953125,-0.2724609375,-5.950927734375,1.12152099609375,2.34222412109375,-8.096703296703296,-83.36605616605617,14.694017094017093,0.92822265625,1.83935546875,-0.21533203125,-0.72479248046875,1.19781494140625,1.5716552734375,-28.338461538461537,38.084493284493284,32.98656898656898
47:21.634,0.0478515625,0.85009765625,1.82763671875,2.6397705078125,8.148193359375,-1.86920166015625,-15.593650793650793,28.03858363858364,-13.344566544566543,0.19873046875,2.0283203125,-0.1572265625,-10.955810546875,-3.54766845703125,2.685546875,-7.347008547008547,-83.66593406593407,15.443711843711844,0.91455078125,1.85205078125,-0.2138671875,-0.4730224609375,-0.08392333984375,3.4332275390625,-29.83785103785104,37.03492063492063,32.236874236874236
47:22.512,-0.41259765625,0.71875,1.9462890625,-16.143798828125,16.70074462890625,-3.96728515625,-34.93577533577533,28.488400488400487,-14.094261294261294,0.25537109375,1.97607421875,-0.0439453125,0.32806396484375,5.42449951171875,-0.67901611328125,-8.396581196581197,-83.96581196581197,16.043467643467643,0.93017578125,1.84716796875,-0.2099609375,-1.922607421875,1.77764892578125,0.43487548828125,-27.438827838827837,38.234432234432234,33.43638583638584
47:23.341,-0.119140625,0.84765625,1.8603515625,1.62506103515625,14.36614990234375,-9.3536376953125,-9.296214896214895,28.488400488400487,-5.847619047619047,0.2236328125,1.9931640625,-0.34375,-5.34820556640625,-1.59454345703125,2.0904541015625,-6.747252747252747,-83.51599511599511,16.943101343101343,0.9384765625,1.8349609375,-0.2138671875,-0.72479248046875,0.61798095703125,2.18963623046875,-28.338461538461537,37.03492063492063,32.236874236874236
47:24.121,-0.119140625,0.84765625,1.8603515625,1.62506103515625,14.36614990234375,-9.3536376953125,-31.037362637362637,31.637118437118435,-15.143833943833943,0.2177734375,2.01318359375,-0.150390625,2.0599365234375,-3.0517578125,-0.1983642578125,-8.546520146520146,-83.81587301587301,14.544078144078144,0.9345703125,1.8447265625,-0.21484375,-1.13677978515625,0.77056884765625,1.99127197265625,-28.638339438339436,37.18485958485958,33.43638583638584
47:25.047,-0.248046875,0.7138671875,1.8720703125,4.4708251953125,0.12969970703125,5.39398193359375,-31.037362637362637,31.637118437118435,-15.143833943833943,0.22314453125,2.02880859375,-0.16162109375,-10.9405517578125,3.05938720703125,3.18145751953125,-8.996336996336996,-83.06617826617827,15.893528693528692,0.9462890625,1.8349609375,-0.22509765625,-1.922607421875,1.21307373046875,1.50299072265625,-28.638339438339436,36.88498168498168,31.037362637362637
47:25.924,-0.16796875,0.80517578125,1.89013671875,-0.57220458984375,1.82342529296875,-0.030517578125,-20.99145299145299,29.987789987789988,-16.193406593406593,0.22314453125,2.02880859375,-0.16162109375,-10.9405517578125,3.05938720703125,3.18145751953125,-8.096703296703296,-83.96581196581197,14.993894993894994,0.9462890625,1.8349609375,-0.22509765625,-1.4190673828125,0.86212158203125,1.96075439453125,-28.788278388278385,37.03492063492063,31.936996336996337
47:26.802,-0.0458984375,0.74951171875,1.8359375,0.77056884765625,4.7454833984375,6.5155029296875,-19.042246642246642,29.537973137973136,-15.443711843711844,0.0771484375,2.02685546875,-0.29248046875,7.02667236328125,-5.18798828125,-6.7901611328125,-8.096703296703296,-83.96581196581197,14.993894993894994,0.92333984375,1.8447265625,-0.20947265625,-1.4190673828125,0.86212158203125,1.96075439453125,-28.788278388278385,37.03492063492063,31.936996336996337
47:27.631,-0.18701171875,0.50048828125,2.03173828125,-3.326416015625,6.04248046875,3.143310546875,-20.54163614163614,29.83785103785104,-10.945543345543346,0.12841796875,2.00439453125,-0.2724609375,-5.66864013671875,0.77056884765625,4.66156005859375,-7.646886446886446,-81.11697191697192,14.694017094017093,0.91064453125,1.8427734375,-0.205078125,-1.190185546875,1.2054443359375,1.10626220703125,-28.788278388278385,37.784615384615385,32.536752136752135
47:28.411,-0.17041015625,0.90380859375,2.0390625,4.33349609375,11.66534423828125,-5.79071044921875,-10.795604395604395,29.687912087912085,-5.697680097680098,0.14111328125,1.9951171875,-0.38330078125,-5.06591796875,-2.87628173828125,0.54931640625,-7.347008547008547,-81.41684981684982,13.644444444444444,0.9052734375,1.84765625,-0.20458984375,-0.83160400390625,0.64849853515625,2.410888671875,-26.83907203907204,37.634676434676436,32.08693528693529
47:29.239,-0.17041015625,0.90380859375,2.0390625,3.05938720703125,-1.06048583984375,1.21307373046875,-29.987789987789988,31.337240537240536,-9.296214896214895,0.1982421875,2.0048828125,-0.291015625,-2.11334228515625,2.685546875,1.57928466796875,-6.747252747252747,-82.76630036630036,14.843956043956043,0.90771484375,1.85400390625,-0.19921875,-1.09100341796875,1.07574462890625,1.708984375,-27.438827838827837,37.18485958485958,31.637118437118435
47:30.019,-0.17333984375,0.47900390625,2.00830078125,3.05938720703125,-1.06048583984375,1.21307373046875,-29.987789987789988,31.337240537240536,-9.296214896214895,0.1982421875,2.0048828125,-0.291015625,-7.99560546875,0.77056884765625,2.1820068359375,-7.197069597069596,-83.06617826617827,13.794383394383393,0.9189453125,1.85009765625,-0.20654296875,-1.1749267578125,0.87738037109375,2.13623046875,-27.288888888888888,37.33479853479853,31.487179487179485
47:30.946,-0.158203125,0.70947265625,1.919921875,-3.71551513671875,3.2806396484375,-2.532958984375,-13.944322344322345,27.88864468864469,-9.146275946275946,0.1787109375,2.03466796875,-0.32080078125,-7.99560546875,0.77056884765625,2.1820068359375,-7.796825396825397,-83.51599511599511,15.143833943833943,0.9189453125,1.85009765625,-0.20654296875,-1.1749267578125,0.87738037109375,2.13623046875,-28.638339438339436,37.634676434676436,34.485958485958484
47:31.726,-0.0927734375,0.7763671875,1.880859375,-3.3721923828125,5.77545166015625,5.57708740234375,-25.78949938949939,30.587545787545785,-17.39291819291819,0.15966796875,2.00927734375,-0.27587890625,2.52532958984375,-1.62506103515625,-0.885009765625,-7.796825396825397,-83.51599511599511,15.143833943833943,0.90869140625,1.8642578125,-0.20068359375,-1.02996826171875,0.457763671875,1.71661376953125,-28.638339438339436,37.634676434676436,34.485958485958484
