time,hand_accelerometer_x,hand_accelerometer_y,hand_accelerometer_z,hand_gyroscope_x,hand_gyroscope_y,hand_gyroscope_z,hand_magnetometer_x,hand_magnetometer_y,hand_magnetometer_z,ankle_accelerometer_x,ankle_accelerometer_y,ankle_accelerometer_z,ankle_gyroscope_x,ankle_gyroscope_y,ankle_gyroscope_z,ankle_magnetometer_x,ankle_magnetometer_y,ankle_magnetometer_z,chest_accelerometer_x,chest_accelerometer_y,chest_accelerometer_z,chest_gyroscope_x,chest_gyroscope_y,chest_gyroscope_z,chest_magnetometer_x,chest_magnetometer_y,chest_magnetometer_z
35:58.222,0.5986328125,-0.005859375,1.9580078125,-0.69427490234375,0.99945068359375,-0.08392333984375,5.247863247863248,0.5997557997557997,24.44004884004884,0.0986328125,2.0087890625,-0.34033203125,-3.814697265625,0.9307861328125,1.10626220703125,-5.397802197802197,-82.76630036630036,14.843956043956043,1.20361328125,1.69921875,-0.0830078125,-1.1138916015625,0.75531005859375,1.71661376953125,-36.73504273504273,35.985347985347985,26.23931623931624
35:59.052,0.58642578125,-0.00048828125,1.96875,-1.31988525390625,1.36566162109375,-0.28228759765625,5.697680097680098,-0.29987789987789987,24.589987789987788,0.09423828125,2.03369140625,-0.24365234375,-2.93731689453125,0.06103515625,1.251220703125,-6.447374847374848,-83.06617826617827,14.843956043956043,1.19970703125,1.6884765625,-0.076171875,-1.03759765625,0.823974609375,1.89208984375,-37.634676434676436,35.68547008547009,25.33968253968254
35:59.929,0.5908203125,0.0,1.9599609375,-1.19781494140625,1.13677978515625,-0.35858154296875,5.547741147741148,1.0495726495726496,23.39047619047619,0.07421875,2.0380859375,-0.2939453125,-3.265380859375,-0.35858154296875,0.93841552734375,-6.597313797313797,-82.61636141636141,16.043467643467643,1.20458984375,1.69921875,-0.09033203125,-1.2054443359375,0.72479248046875,1.9378662109375,-38.98412698412698,36.135286935286935,27.13894993894994
36:00.709,0.5908203125,0.0,1.9599609375,-1.19781494140625,1.13677978515625,-0.35858154296875,5.547741147741148,1.0495726495726496,23.39047619047619,0.09619140625,2.0263671875,-0.287109375,-2.3956298828125,-0.18310546875,1.1749267578125,-4.798046398046398,-82.16654456654456,15.743589743589743,1.2080078125,1.68994140625,-0.087890625,-1.251220703125,0.63323974609375,1.8768310546875,-37.784615384615385,36.285225885225884,26.23931623931624
36:01.538,0.5869140625,0.00537109375,1.962890625,-1.57928466796875,1.312255859375,-0.25177001953125,7.047130647130647,2.399023199023199,25.489621489621488,0.09619140625,2.0263671875,-0.287109375,-2.3956298828125,-0.18310546875,1.1749267578125,-6.897191697191697,-81.41684981684982,13.644444444444444,1.2080078125,1.68994140625,-0.087890625,-1.0833740234375,0.8087158203125,1.922607421875,-37.634676434676436,35.08571428571428,25.03980463980464
36:02.415,0.615234375,0.005859375,1.95947265625,-0.91552734375,1.678466796875,0.25177001953125,8.546520146520146,1.4993894993894994,23.690354090354088,0.1015625,2.001953125,-0.29931640625,-1.312255859375,0.51116943359375,0.9918212890625,-6.897191697191697,-81.41684981684982,13.644444444444444,1.1982421875,1.6904296875,-0.087890625,-1.0833740234375,0.8087158203125,1.922607421875,-37.634676434676436,35.08571428571428,25.03980463980464
36:03.244,0.63330078125,0.02001953125,1.95361328125,-1.6326904296875,1.190185546875,-0.40435791015625,5.697680097680098,1.4993894993894994,25.33968253968254,0.09765625,2.02197265625,-0.279296875,-3.448486328125,-0.86212158203125,0.96893310546875,-7.496947496947497,-83.06617826617827,14.544078144078144,1.20361328125,1.6943359375,-0.08544921875,-0.9613037109375,0.92315673828125,2.13623046875,-36.73504273504273,37.03492063492063,25.18974358974359
36:04.073,0.615234375,0.0068359375,1.95556640625,-2.57110595703125,0.78582763671875,-2.349853515625,6.147496947496947,0.7496947496947497,23.99023199023199,0.08642578125,2.0166015625,-0.2587890625,-3.4942626953125,0.67901611328125,1.0986328125,-7.646886446886446,-83.36605616605617,16.49328449328449,1.208984375,1.69677734375,-0.078125,-1.10626220703125,0.5035400390625,1.94549560546875,-35.835409035409036,35.08571428571428,25.78949938949939
36:04.902,0.615234375,0.0068359375,1.95556640625,-0.67138671875,0.3662109375,0.42724609375,5.697680097680098,2.249084249084249,24.29010989010989,0.09228515625,2.02880859375,-0.28271484375,-2.60162353515625,0.08392333984375,1.15203857421875,-7.646886446886446,-82.61636141636141,13.644444444444444,1.2021484375,1.69921875,-0.099609375,-0.92315673828125,0.8392333984375,1.77764892578125,-37.784615384615385,35.985347985347985,25.93943833943834
36:05.730,0.6259765625,-0.00146484375,1.94384765625,-0.67138671875,0.3662109375,0.42724609375,6.147496947496947,0.4498168498168498,23.690354090354088,0.09375,2.01513671875,-0.26904296875,-2.3345947265625,0.2899169921875,1.33514404296875,-6.447374847374848,-82.31648351648352,16.193406593406593,1.19482421875,1.69677734375,-0.10009765625,-1.0833740234375,0.457763671875,1.983642578125,-37.03492063492063,38.084493284493284,25.93943833943834
36:06.754,0.68115234375,-0.0166015625,1.9443359375,-1.51824951171875,2.12860107421875,-0.95367431640625,7.796825396825397,-0.29987789987789987,23.690354090354088,0.09033203125,2.0458984375,-0.25341796875,-4.18853759765625,0.2593994140625,1.312255859375,-6.897191697191697,-82.16654456654456,15.443711843711844,1.2060546875,1.69384765625,-0.09033203125,-0.91552734375,0.6866455078125,2.11334228515625,-37.18485958485958,35.38559218559219,24.739926739926737
36:07.583,0.63623046875,-0.0068359375,1.9384765625,-0.518798828125,1.19781494140625,0.152587890625,7.796825396825397,-0.29987789987789987,23.690354090354088,0.09033203125,2.0458984375,-0.25341796875,-4.18853759765625,0.2593994140625,1.312255859375,-7.496947496947497,-82.31648351648352,14.843956043956043,1.2060546875,1.69384765625,-0.09033203125,-0.91552734375,0.87738037109375,1.3885498046875,-35.985347985347985,35.53553113553114,23.84029304029304
36:08.460,0.603515625,0.0205078125,1.95947265625,-1.06048583984375,-0.0457763671875,0.03814697265625,5.397802197802197,0.7496947496947497,23.99023199023199,0.095703125,2.0185546875,-0.2626953125,-2.89154052734375,-0.06866455078125,1.312255859375,-7.496947496947497,-82.31648351648352,14.843956043956043,1.20654296875,1.68701171875,-0.1044921875,-0.91552734375,0.87738037109375,1.3885498046875,-37.934554334554335,35.68547008547009,26.08937728937729
36:09.289,0.7099609375,-0.01171875,1.9140625,0.02288818359375,2.685546875,3.74603271484375,5.397802197802197,-0.29987789987789987,23.99023199023199,0.10888671875,2.02685546875,-0.25537109375,-1.77001953125,0.5035400390625,0.701904296875,-6.747252747252747,-82.31648351648352,15.143833943833943,1.19482421875,1.69873046875,-0.0908203125,-0.92315673828125,0.84686279296875,1.83868408203125,-37.934554334554335,35.68547008547009,26.08937728937729
36:10.118,0.62109375,0.01611328125,1.96533203125,-0.77056884765625,2.7618408203125,-0.3662109375,5.397802197802197,0.4498168498168498,23.99023199023199,0.09130859375,2.02099609375,-0.24267578125,-4.14276123046875,0.3662109375,1.10626220703125,-7.496947496947497,-83.06617826617827,15.593650793650793,1.20458984375,1.69775390625,-0.10302734375,-0.80108642578125,0.7781982421875,1.94549560546875,-37.934554334554335,35.68547008547009,24.739926739926737
36:10.946,0.60400390625,0.01123046875,1.95947265625,-1.1138916015625,1.47247314453125,-0.14495849609375,6.597313797313797,-0.7496947496947497,24.14017094017094,0.08935546875,2.0283203125,-0.25,-3.08990478515625,-2.26593017578125,0.89263916015625,-6.597313797313797,-82.16654456654456,17.093040293040293,1.20068359375,1.69287109375,-0.09619140625,-1.09100341796875,0.75531005859375,1.97601318359375,-36.73504273504273,35.53553113553114,25.93943833943834
36:11.775,0.60400390625,0.01123046875,1.95947265625,-2.06756591796875,0.7781982421875,-1.3580322265625,5.547741147741148,1.3494505494505493,24.14017094017094,0.08935546875,2.017578125,-0.2353515625,-2.75421142578125,-0.4730224609375,0.72479248046875,-7.347008547008547,-82.16654456654456,16.043467643467643,1.208984375,1.6923828125,-0.08056640625,-0.9918212890625,0.63323974609375,2.044677734375,-37.634676434676436,38.234432234432234,27.13894993894994
36:12.604,0.62158203125,-0.0009765625,1.94677734375,-2.06756591796875,0.7781982421875,-1.3580322265625,5.547741147741148,1.3494505494505493,24.14017094017094,0.08935546875,2.017578125,-0.2353515625,-2.75421142578125,-0.4730224609375,0.72479248046875,-7.197069597069596,-80.51721611721611,15.593650793650793,1.208984375,1.6923828125,-0.08056640625,-1.0833740234375,0.75531005859375,1.86920166015625,-36.88498168498168,35.68547008547009,26.389255189255188
36:13.384,0.67333984375,-0.01806640625,1.9306640625,-0.28228759765625,2.6702880859375,-0.0152587890625,5.847619047619047,0.29987789987789987,23.84029304029304,0.09521484375,2.00830078125,-0.2353515625,-3.021240234375,0.31280517578125,1.02996826171875,-7.197069597069596,-80.51721611721611,15.593650793650793,1.212890625,1.69091796875,-0.09326171875,-1.0833740234375,0.75531005859375,1.86920166015625,-36.58510378510378,35.68547008547009,26.08937728937729
36:14.261,0.68115234375,-0.00439453125,1.916015625,-1.6326904296875,1.24359130859375,-0.2288818359375,7.047130647130647,1.0495726495726496,25.78949938949939,0.0966796875,2.0205078125,-0.23291015625,-2.08282470703125,-1.0223388671875,0.52642822265625,-7.197069597069596,-82.01660561660562,16.193406593406593,1.2041015625,1.70458984375,-0.07763671875,-1.21307373046875,0.8087158203125,1.71661376953125,-36.58510378510378,35.68547008547009,26.08937728937729
36:15.090,0.6318359375,-0.00341796875,1.927734375,-2.044677734375,-4.33349609375,-0.75531005859375,5.847619047619047,0.5997557997557997,24.44004884004884,0.09765625,2.01904296875,-0.24951171875,-2.46429443359375,-0.35858154296875,1.2969970703125,-5.997557997557998,-82.31648351648352,14.544078144078144,1.19921875,1.6982421875,-0.095703125,-0.96893310546875,-0.06103515625,2.655029296875,-36.135286935286935,34.336019536019535,25.33968253968254
36:15.870,0.6318359375,-0.00341796875,1.927734375,-0.885009765625,0.762939453125,-0.3814697265625,5.547741147741148,-0.4498168498168498,23.84029304029304,0.087890625,2.01953125,-0.259765625,-3.73077392578125,0.74005126953125,0.98419189453125,-5.697680097680098,-82.76630036630036,15.593650793650793,1.1982421875,1.6904296875,-0.1064453125,-0.89263916015625,0.05340576171875,2.37274169921875,-36.73504273504273,35.53553113553114,26.98901098901099
36:16.650,0.59033203125,0.0205078125,1.98193359375,-0.885009765625,0.762939453125,-0.3814697265625,5.547741147741148,-0.4498168498168498,23.84029304029304,0.087890625,2.01953125,-0.259765625,-2.838134765625,-0.457763671875,1.01470947265625,-5.997557997557998,-81.26691086691086,15.593650793650793,1.1982421875,1.6904296875,-0.1064453125,-0.79345703125,0.579833984375,1.6937255859375,-35.23565323565323,35.985347985347985,25.93943833943834
36:17.430,0.568359375,0.01708984375,1.97021484375,-1.35040283203125,-0.06103515625,-0.091552734375,7.347008547008547,3.4485958485958483,24.739926739926737,0.0908203125,2.015625,-0.236328125,-2.838134765625,-0.457763671875,1.01470947265625,-5.997557997557998,-81.26691086691086,15.593650793650793,1.20361328125,1.69580078125,-0.09326171875,-0.79345703125,0.579833984375,1.6937255859375,-35.23565323565323,35.985347985347985,25.93943833943834
36:18.210,0.58984375,0.0126953125,1.96826171875,-1.19781494140625,-0.1068115234375,-0.19073486328125,5.097924297924298,0.7496947496947497,25.33968253968254,0.09228515625,2.0322265625,-0.22509765625,-1.86920166015625,0.34332275390625,1.60980224609375,-6.897191697191697,-82.61636141636141,16.043467643467643,1.20068359375,1.6904296875,-0.080078125,-1.06048583984375,0.8392333984375,1.64794921875,-38.68424908424908,36.435164835164834,26.389255189255188
36:18.990,0.59130859375,0.00341796875,1.953125,-0.81634521484375,-0.5950927734375,-0.1220703125,6.297435897435897,0.5997557997557997,25.18974358974359,0.0751953125,2.04345703125,-0.22607421875,-3.5400390625,0.335693359375,1.1444091796875,-6.447374847374848,-81.71672771672772,14.094261294261294,1.201171875,1.69580078125,-0.10205078125,-1.12152099609375,0.8087158203125,1.93023681640625,-37.03492063492063,35.53553113553114,27.738705738705736
36:19.868,0.59130859375,0.00341796875,1.953125,-1.24359130859375,0.274658203125,-0.40435791015625,5.547741147741148,1.3494505494505493,24.14017094017094,0.08056640625,2.02197265625,-0.234375,-2.197265625,0.4425048828125,1.0528564453125,-4.947985347985348,-82.76630036630036,16.193406593406593,1.20068359375,1.7001953125,-0.09033203125,-1.129150390625,0.64849853515625,1.922607421875,-36.285225885225884,35.23565323565323,25.639560439560437
36:20.648,0.61669921875,0.00439453125,1.95654296875,-1.24359130859375,0.274658203125,-0.40435791015625,4.798046398046398,0.5997557997557997,23.09059829059829,0.099609375,2.0234375,-0.25048828125,-5.92041015625,-2.5177001953125,0.1373291015625,-6.297435897435897,-81.41684981684982,15.743589743589743,1.2138671875,1.6923828125,-0.09130859375,-1.25885009765625,1.24359130859375,1.5869140625,-38.83418803418803,36.285225885225884,25.18974358974359
36:21.525,0.76220703125,0.0361328125,1.96337890625,-3.76129150390625,-2.63214111328125,-2.50244140625,4.798046398046398,0.5997557997557997,23.09059829059829,0.099609375,2.0234375,-0.25048828125,-5.92041015625,-2.5177001953125,0.1373291015625,-6.747252747252747,-82.01660561660562,15.893528693528692,1.2138671875,1.6923828125,-0.09130859375,-1.25885009765625,1.24359130859375,1.5869140625,-37.634676434676436,35.38559218559219,24.29010989010989
36:22.305,0.2587890625,0.080078125,2.03955078125,0.5645751953125,-0.86212158203125,-18.50128173828125,6.147496947496947,0.7496947496947497,22.64078144078144,0.044921875,2.037109375,-0.22998046875,1.9378662109375,-6.14166259765625,2.41851806640625,-6.747252747252747,-82.01660561660562,15.893528693528692,1.2021484375,1.69482421875,-0.0859375,-0.77056884765625,0.20599365234375,3.15093994140625,-37.634676434676436,35.38559218559219,24.29010989010989
36:23.134,0.5263671875,-0.02783203125,1.98046875,0.1220703125,1.068115234375,-0.05340576171875,23.690354090354088,10.795604395604395,-0.29987789987789987,0.0478515625,2.03466796875,-0.33740234375,-1.27410888671875,-0.12969970703125,2.44903564453125,-5.997557997557998,-82.76630036630036,15.593650793650793,1.20068359375,1.69384765625,-0.0927734375,-1.007080078125,0.6561279296875,2.00653076171875,-37.03492063492063,35.985347985347985,25.639560439560437
36:23.963,0.54443359375,-0.0234375,1.970703125,-1.2664794921875,0.63323974609375,-0.1678466796875,5.847619047619047,1.6493284493284492,23.84029304029304,0.0673828125,2.037109375,-0.318359375,-4.40216064453125,-0.70953369140625,1.0986328125,-6.447374847374848,-82.01660561660562,14.094261294261294,1.2041015625,1.69287109375,-0.09130859375,-1.129150390625,0.51116943359375,1.65557861328125,-37.48473748473749,35.23565323565323,26.689133089133087
36:24.792,0.54443359375,-0.0234375,1.970703125,-1.85394287109375,-1.09100341796875,-0.335693359375,5.397802197802197,1.4993894993894994,24.29010989010989,0.07470703125,2.0244140625,-0.23974609375,-2.64739990234375,-0.6256103515625,0.83160400390625,-7.197069597069596,-83.51599511599511,16.193406593406593,1.20361328125,1.69580078125,-0.0927734375,-1.01470947265625,0.8697509765625,1.800537109375,-37.18485958485958,35.68547008547009,25.78949938949939
36:25.621,0.537109375,-0.01513671875,1.9501953125,-1.85394287109375,-1.09100341796875,-0.335693359375,5.397802197802197,1.4993894993894994,24.29010989010989,0.07470703125,2.0244140625,-0.23974609375,-3.4942626953125,0.213623046875,0.58746337890625,-7.197069597069596,-82.31648351648352,14.843956043956043,1.20751953125,1.6923828125,-0.08203125,-1.10626220703125,0.91552734375,1.74713134765625,-35.68547008547009,34.186080586080585,25.18974358974359
36:26.449,0.5546875,-0.06396484375,1.9150390625,-3.9825439453125,7.26318359375,-0.274658203125,5.697680097680098,0.7496947496947497,21.59120879120879,0.0751953125,2.0283203125,-0.263671875,-3.4942626953125,0.213623046875,0.58746337890625,-7.197069597069596,-82.31648351648352,14.843956043956043,1.20751953125,1.6923828125,-0.08203125,-1.10626220703125,0.91552734375,1.74713134765625,-35.68547008547009,34.186080586080585,25.18974358974359
36:27.229,0.56298828125,-0.07177734375,1.97021484375,-2.93731689453125,1.16729736328125,0.4730224609375,5.547741147741148,2.848840048840049,20.39169719169719,0.0654296875,2.04443359375,-0.30712890625,-4.46319580078125,-0.5645751953125,0.823974609375,-6.747252747252747,-83.06617826617827,16.64322344322344,1.2001953125,1.69873046875,-0.078125,-0.96893310546875,0.7781982421875,2.0599365234375,-36.58510378510378,36.135286935286935,26.389255189255188
36:28.058,0.5283203125,-0.04345703125,1.98291015625,0.2288818359375,1.52587890625,0.54168701171875,4.648107448107448,1.4993894993894994,23.24053724053724,0.10107421875,2.0224609375,-0.28515625,-3.4637451171875,0.37384033203125,0.213623046875,-6.447374847374848,-81.26691086691086,15.893528693528692,1.19384765625,1.68505859375,-0.08984375,-1.2664794921875,0.83160400390625,1.7242431640625,-35.835409035409036,35.68547008547009,25.33968253968254
36:28.887,0.5283203125,-0.04345703125,1.98291015625,-0.43487548828125,2.13623046875,0.19073486328125,5.397802197802197,1.4993894993894994,24.29010989010989,0.07177734375,2.02392578125,-0.29736328125,-3.6163330078125,0.69427490234375,0.80108642578125,-6.597313797313797,-83.66593406593407,13.644444444444444,1.2001953125,1.7001953125,-0.08154296875,-0.8697509765625,0.92315673828125,1.80816650390625,-36.88498168498168,35.08571428571428,27.438827838827837
36:29.667,0.5517578125,-0.01611328125,1.9775390625,-0.43487548828125,2.13623046875,0.19073486328125,5.097924297924298,0.14993894993894993,22.94065934065934,0.07177734375,2.04296875,-0.2587890625,-2.93731689453125,0.48065185546875,1.71661376953125,-6.897191697191697,-82.61636141636141,15.443711843711844,1.201171875,1.69287109375,-0.08203125,-1.07574462890625,1.0223388671875,1.77001953125,-37.18485958485958,35.08571428571428,27.13894993894994
36:30.544,0.5126953125,-0.009765625,1.9892578125,-0.18310546875,2.3040771484375,0.06103515625,5.097924297924298,0.14993894993894993,22.94065934065934,0.07177734375,2.04296875,-0.2587890625,-2.93731689453125,0.48065185546875,1.71661376953125,-6.297435897435897,-81.86666666666666,14.993894993894994,1.201171875,1.69287109375,-0.08203125,-1.07574462890625,1.0223388671875,1.77001953125,-37.03492063492063,34.485958485958484,25.93943833943834
36:31.373,0.52783203125,-0.0166015625,1.99365234375,0.885009765625,3.73077392578125,-0.61798095703125,7.496947496947497,0.4498168498168498,23.690354090354088,0.0859375,2.03271484375,-0.283203125,-3.173828125,0.2593994140625,0.8087158203125,-6.297435897435897,-81.86666666666666,14.993894993894994,1.193359375,1.69287109375,-0.07958984375,-1.02996826171875,0.70953369140625,2.00653076171875,-37.03492063492063,34.485958485958484,25.93943833943834
36:32.153,0.51171875,-0.01123046875,1.99462890625,-1.74713134765625,1.54876708984375,-0.8544921875,5.847619047619047,2.399023199023199,24.739926739926737,0.0908203125,2.013671875,-0.2744140625,-2.26593017578125,0.42724609375,1.44195556640625,-5.997557997557998,-81.26691086691086,16.64322344322344,1.19384765625,1.69091796875,-0.0927734375,-1.12152099609375,0.8392333984375,1.708984375,-37.03492063492063,35.53553113553114,25.93943833943834
36:32.933,0.4609375,-0.0048828125,1.994140625,-1.36566162109375,1.5411376953125,-0.274658203125,5.247863247863248,1.3494505494505493,23.84029304029304,0.08349609375,1.98095703125,-0.3017578125,-2.99072265625,-1.51824951171875,2.13623046875,-7.646886446886446,-81.41684981684982,16.043467643467643,1.20263671875,1.6943359375,-0.08984375,-1.2359619140625,0.7171630859375,1.59454345703125,-38.38437118437118,33.28644688644688,26.83907203907204
36:33.713,0.4609375,-0.0048828125,1.994140625,-1.36566162109375,1.5411376953125,-0.274658203125,5.247863247863248,1.3494505494505493,25.18974358974359,0.0908203125,2.01123046875,-0.28369140625,-3.3721923828125,-0.213623046875,1.13677978515625,-4.947985347985348,-82.01660561660562,16.943101343101343,1.19873046875,1.69775390625,-0.0908203125,-0.79345703125,0.84686279296875,1.800537109375,-39.28400488400488,36.73504273504273,26.98901098901099
36:34.590,0.51416015625,-0.0107421875,2.001953125,-0.5950927734375,3.35693359375,-0.7171630859375,5.247863247863248,1.3494505494505493,25.18974358974359,0.0908203125,2.01123046875,-0.28369140625,-2.0751953125,-0.57220458984375,0.7171630859375,-7.197069597069596,-80.51721611721611,15.893528693528692,1.20556640625,1.69580078125,-0.087890625,-0.90789794921875,0.52642822265625,2.14385986328125,-38.53431013431013,35.53553113553114,26.689133089133087
36:35.517,0.4677734375,-0.009765625,1.9365234375,-0.78582763671875,2.14385986328125,-0.030517578125,5.547741147741148,2.399023199023199,23.84029304029304,0.09326171875,2.02685546875,-0.27294921875,-2.0751953125,-0.57220458984375,0.7171630859375,-7.646886446886446,-82.91623931623931,14.993894993894994,1.20556640625,1.69580078125,-0.087890625,-1.07574462890625,0.70953369140625,2.0599365234375,-38.084493284493284,35.23565323565323,27.288888888888888
36:36.443,0.4638671875,-0.02783203125,1.998046875,2.28118896484375,0.06103515625,0.12969970703125,3.598534798534798,1.9492063492063492,24.29010989010989,0.09423828125,1.99658203125,-0.30419921875,-3.04412841796875,0.2288818359375,1.18255615234375,-7.646886446886446,-82.91623931623931,14.993894993894994,1.18896484375,1.69775390625,-0.08447265625,-1.07574462890625,0.70953369140625,2.0599365234375,-36.135286935286935,37.18485958485958,25.33968253968254
36:37.272,0.53369140625,-0.03955078125,1.9462890625,-5.01251220703125,-15.69366455078125,-3.53240966796875,7.496947496947497,2.998778998778999,25.03980463980464,0.0693359375,2.02294921875,-0.34716796875,-3.2196044921875,-0.2288818359375,1.0528564453125,-6.747252747252747,-81.71672771672772,14.843956043956043,1.203125,1.6923828125,-0.09765625,-0.77056884765625,0.52642822265625,1.708984375,-36.135286935286935,37.18485958485958,25.33968253968254
36:38.101,0.58251953125,-0.041015625,1.97802734375,-2.86102294921875,-4.57000732421875,-1.922607421875,6.297435897435897,0.0,22.04102564102564,0.099609375,2.0224609375,-0.2890625,-2.90679931640625,-0.6866455078125,0.92315673828125,-5.847619047619047,-81.86666666666666,14.993894993894994,1.1982421875,1.6962890625,-0.10302734375,-1.19781494140625,0.946044921875,1.9378662109375,-36.135286935286935,35.68547008547009,27.13894993894994
36:38.930,0.57763671875,-0.04541015625,1.9638671875,-1.06048583984375,0.7171630859375,-0.579833984375,5.547741147741148,1.0495726495726496,23.39047619047619,0.08935546875,2.02099609375,-0.2763671875,-2.3193359375,-0.43487548828125,1.09100341796875,-6.747252747252747,-81.26691086691086,15.143833943833943,1.20263671875,1.7001953125,-0.08349609375,-0.9918212890625,0.885009765625,1.62506103515625,-37.784615384615385,36.73504273504273,26.23931623931624
36:39.709,0.57763671875,-0.04541015625,1.9638671875,-1.06048583984375,0.7171630859375,-0.579833984375,7.197069597069596,1.1995115995115995,23.99023199023199,0.0869140625,2.02099609375,-0.27294921875,-1.57928466796875,0.2899169921875,0.9765625,-5.997557997557998,-82.31648351648352,15.593650793650793,1.19091796875,1.6962890625,-0.08349609375,-1.03759765625,0.78582763671875,1.97601318359375,-36.58510378510378,35.68547008547009,24.739926739926737
36:40.636,0.4892578125,-0.00927734375,1.978515625,-2.60162353515625,-4.119873046875,0.48065185546875,5.847619047619047,2.399023199023199,24.14017094017094,0.08740234375,2.017578125,-0.28564453125,-2.899169921875,0.19073486328125,1.15203857421875,-7.496947496947497,-82.31648351648352,13.794383394383393,1.2060546875,1.6962890625,-0.0869140625,-1.16729736328125,0.7476806640625,1.91497802734375,-36.58510378510378,34.336019536019535,27.13894993894994
36:41.562,0.59130859375,-0.04150390625,1.96240234375,-2.57110595703125,-2.95257568359375,-1.6937255859375,5.847619047619047,2.399023199023199,24.14017094017094,0.08740234375,2.017578125,-0.28564453125,-1.1444091796875,0.274658203125,0.9307861328125,-7.646886446886446,-81.41684981684982,15.743589743589743,1.2060546875,1.6962890625,-0.0869140625,-0.99945068359375,0.87738037109375,1.71661376953125,-35.38559218559219,35.68547008547009,26.389255189255188
36:42.439,0.53662109375,-0.03369140625,1.966796875,-0.6866455078125,13.20648193359375,0.54931640625,5.397802197802197,0.7496947496947497,24.29010989010989,0.0869140625,2.01611328125,-0.2783203125,-1.1444091796875,0.274658203125,0.9307861328125,-7.646886446886446,-82.61636141636141,13.644444444444444,1.19580078125,1.697265625,-0.08642578125,-1.15203857421875,0.64849853515625,1.82342529296875,-37.634676434676436,35.38559218559219,25.03980463980464
36:43.414,0.5673828125,-0.04248046875,1.9638671875,-3.57818603515625,-5.4931640625,-1.9683837890625,5.397802197802197,1.1995115995115995,24.589987789987788,0.07080078125,2.00341796875,-0.3544921875,-2.87628173828125,0.67901611328125,0.54168701171875,-7.646886446886446,-82.61636141636141,13.644444444444444,1.1953125,1.693359375,-0.0869140625,-1.15203857421875,0.64849853515625,1.82342529296875,-37.634676434676436,35.08571428571428,26.389255189255188
36:44.292,0.6005859375,-0.041015625,1.95703125,0.2593994140625,1.33514404296875,0.579833984375,5.547741147741148,2.399023199023199,25.18974358974359,0.0849609375,2.02197265625,-0.2958984375,-3.1280517578125,-0.48065185546875,1.007080078125,-7.347008547008547,-82.16654456654456,16.49328449328449,1.20556640625,1.69580078125,-0.08837890625,-1.0528564453125,0.86212158203125,1.9073486328125,-37.634676434676436,35.08571428571428,26.389255189255188
36:45.072,0.53076171875,-0.02001953125,2.00244140625,-0.9002685546875,1.8310546875,-0.1373291015625,5.847619047619047,0.0,25.18974358974359,0.09130859375,2.02001953125,-0.28564453125,-3.65447998046875,-0.23651123046875,0.7476806640625,-7.646886446886446,-80.66715506715506,12.594871794871795,1.2060546875,1.6904296875,-0.099609375,-0.9918212890625,0.5645751953125,1.47247314453125,-36.73504273504273,34.78583638583638,26.23931623931624
36:45.852,0.53076171875,-0.02001953125,2.00244140625,-1.8768310546875,0.77056884765625,-1.617431640625,4.498168498168498,1.6493284493284492,23.39047619047619,0.12353515625,2.0166015625,-0.32861328125,2.69317626953125,1.25885009765625,1.0223388671875,-7.197069597069596,-83.06617826617827,15.143833943833943,1.2021484375,1.69482421875,-0.083984375,-0.8392333984375,0.732421875,2.12860107421875,-37.48473748473749,35.985347985347985,26.23931623931624
36:46.632,0.48681640625,-0.00244140625,1.97216796875,-1.8768310546875,0.77056884765625,-1.617431640625,4.498168498168498,1.6493284493284492,23.39047619047619,0.12353515625,2.0166015625,-0.32861328125,-6.103515625,2.28118896484375,1.2359619140625,-5.397802197802197,-82.01660561660562,15.593650793650793,1.1904296875,1.69189453125,-0.08642578125,-0.8087158203125,0.32806396484375,2.685546875,-36.73504273504273,35.985347985347985,25.639560439560437
36:47.461,-0.06494140625,-0.1455078125,2.04931640625,3.7384033203125,-4.89044189453125,48.9349365234375,6.147496947496947,2.249084249084249,23.690354090354088,0.10986328125,2.0244140625,-0.21923828125,-6.103515625,2.28118896484375,1.2359619140625,-5.397802197802197,-82.01660561660562,15.593650793650793,1.1904296875,1.69189453125,-0.08642578125,-0.8087158203125,0.32806396484375,2.685546875,-36.73504273504273,35.985347985347985,25.639560439560437
36:48.241,0.53955078125,-0.13818359375,1.96142578125,-2.17437744140625,-2.29644775390625,-0.4119873046875,15.293772893772893,8.246642246642246,20.54163614163614,0.10009765625,2.001953125,-0.36474609375,-3.04412841796875,0.2593994140625,0.30517578125,-6.447374847374848,-82.76630036630036,16.193406593406593,1.2021484375,1.6962890625,-0.08837890625,-1.18255615234375,0.57220458984375,2.044677734375,-37.634676434676436,36.135286935286935,26.389255189255188
36:49.021,0.5498046875,-0.16357421875,1.939453125,-0.58746337890625,4.29534912109375,1.0986328125,-13.344566544566543,11.545299145299145,-34.036141636141636,0.06689453125,2.02099609375,-0.3759765625,-4.34112548828125,2.55584716796875,1.47247314453125,-7.496947496947497,-82.01660561660562,14.544078144078144,1.2021484375,1.689453125,-0.09130859375,-0.9918212890625,0.77056884765625,1.82342529296875,-36.285225885225884,35.53553113553114,25.93943833943834
36:49.801,0.5498046875,-0.16357421875,1.939453125,-0.58746337890625,4.29534912109375,1.0986328125,-12.894749694749695,11.845177045177044,-34.635897435897434,0.10400390625,2.01953125,-0.3291015625,-3.02886962890625,-0.99945068359375,1.2054443359375,-8.396581196581197,-82.16654456654456,14.394139194139193,1.2041015625,1.705078125,-0.07470703125,-0.90789794921875,0.75531005859375,1.983642578125,-36.285225885225884,35.53553113553114,25.93943833943834
36:50.581,0.34423828125,-0.1845703125,2.0673828125,-12.22991943359375,-12.71820068359375,-14.86968994140625,-12.894749694749695,11.845177045177044,-34.635897435897434,0.10400390625,2.01953125,-0.3291015625,-3.02886962890625,-0.99945068359375,1.2054443359375,-6.747252747252747,-82.76630036630036,14.544078144078144,1.2041015625,1.705078125,-0.07470703125,-1.15203857421875,0.7781982421875,1.86920166015625,-37.03492063492063,35.53553113553114,25.639560439560437
36:51.410,0.494140625,-0.1748046875,1.96630859375,-3.4332275390625,-1.59454345703125,0.29754638671875,-12.594871794871795,12.894749694749695,-33.58632478632479,0.09326171875,2.0009765625,-0.2998046875,-2.2735595703125,0.12969970703125,0.885009765625,-6.747252747252747,-82.76630036630036,14.544078144078144,1.20458984375,1.69384765625,-0.08447265625,-1.15203857421875,0.7781982421875,1.86920166015625,-37.03492063492063,35.53553113553114,25.639560439560437
36:52.190,0.47216796875,-0.158203125,1.93310546875,3.24249267578125,6.40106201171875,-4.852294921875,-11.995115995115995,12.744810744810744,-36.58510378510378,0.0869140625,2.0234375,-0.310546875,-3.6163330078125,0.7781982421875,0.518798828125,-7.347008547008547,-81.11697191697192,14.694017094017093,1.20361328125,1.69970703125,-0.08935546875,-0.99945068359375,0.78582763671875,1.77001953125,-37.634676434676436,35.08571428571428,26.83907203907204
36:52.969,0.84130859375,-0.28125,1.76025390625,-5.1727294921875,-3.39508056640625,2.9449462890625,-10.945543345543346,10.645665445665445,-33.13650793650793,0.08837890625,2.01123046875,-0.29150390625,-1.5869140625,0.7781982421875,0.69427490234375,-5.997557997557998,-81.71672771672772,14.843956043956043,1.20166015625,1.6953125,-0.087890625,-0.86212158203125,0.67138671875,1.96075439453125,-37.03492063492063,36.285225885225884,26.689133089133087
36:53.749,0.84130859375,-0.28125,1.76025390625,-5.1727294921875,-3.39508056640625,2.9449462890625,-14.394139194139193,10.495726495726496,-37.33479853479853,0.08837890625,2.03271484375,-0.26220703125,-11.627197265625,-1.4801025390625,0.1068115234375,-6.297435897435897,-81.86666666666666,14.993894993894994,1.203125,1.689453125,-0.09619140625,-0.7171630859375,0.32806396484375,1.70135498046875,-35.23565323565323,34.78583638583638,25.18974358974359
36:54.530,0.0546875,-0.25390625,2.0244140625,-6.9732666015625,22.16339111328125,1.28936767578125,-14.394139194139193,10.495726495726496,-37.33479853479853,0.08837890625,2.03271484375,-0.26220703125,-11.627197265625,-1.4801025390625,0.1068115234375,-5.697680097680098,-82.76630036630036,14.544078144078144,1.203125,1.689453125,-0.09619140625,-1.28936767578125,0.79345703125,1.8157958984375,-37.18485958485958,35.38559218559219,25.78949938949939
36:55.358,0.423828125,-0.14111328125,1.9091796875,1.007080078125,-0.55694580078125,-4.974365234375,-8.846398046398047,13.794383394383393,-31.787057387057384,0.083984375,2.03271484375,-0.27783203125,-2.52532958984375,0.244140625,0.49591064453125,-5.697680097680098,-82.76630036630036,14.544078144078144,1.1904296875,1.6962890625,-0.10107421875,-1.28936767578125,0.79345703125,1.8157958984375,-37.18485958485958,35.38559218559219,25.78949938949939
36:56.236,0.142578125,-0.18359375,2.017578125,-13.18359375,12.8631591796875,12.82501220703125,-9.446153846153846,9.746031746031745,-35.68547008547009,0.109375,2.00439453125,-0.2529296875,-1.861572265625,1.03759765625,1.9073486328125,-8.096703296703296,-83.66593406593407,12.894749694749695,1.2060546875,1.693359375,-0.09228515625,-1.01470947265625,0.48828125,1.97601318359375,-36.285225885225884,37.33479853479853,27.288888888888888
36:57.065,0.30029296875,-0.1630859375,2.025390625,1.74713134765625,0.823974609375,-2.288818359375,-10.495726495726496,11.845177045177044,-34.635897435897434,0.10009765625,2.0302734375,-0.26220703125,-3.24249267578125,-0.152587890625,0.84686279296875,-8.246642246642246,-83.06617826617827,16.64322344322344,1.19580078125,1.69287109375,-0.0712890625,-0.98419189453125,0.7171630859375,1.79290771484375,-36.73504273504273,35.985347985347985,25.639560439560437
36:57.845,0.30029296875,-0.1630859375,2.025390625,-2.38800048828125,0.16021728515625,0.32806396484375,-10.795604395604395,12.594871794871795,-36.73504273504273,0.08056640625,2.01318359375,-0.2548828125,-2.227783203125,0.98419189453125,1.1444091796875,-7.646886446886446,-82.91623931623931,14.993894993894994,1.19677734375,1.6943359375,-0.09130859375,-0.8697509765625,0.89263916015625,1.708984375,-36.88498168498168,36.435164835164834,24.739926739926737
36:58.673,0.146484375,-0.2041015625,2.0,-2.38800048828125,0.16021728515625,0.32806396484375,-10.795604395604395,12.594871794871795,-36.73504273504273,0.08056640625,2.01318359375,-0.2548828125,-3.13568115234375,-0.48828125,1.13677978515625,-7.347008547008547,-81.86666666666666,14.694017094017093,1.19580078125,1.69482421875,-0.09033203125,-1.129150390625,0.75531005859375,1.97601318359375,-37.18485958485958,36.435164835164834,26.08937728937729
36:59.453,0.40283203125,-0.16650390625,2.03271484375,11.444091796875,12.054443359375,3.2196044921875,-9.446153846153846,14.394139194139193,-35.08571428571428,0.0888671875,2.02734375,-0.2783203125,-3.13568115234375,-0.48828125,1.13677978515625,-7.347008547008547,-81.86666666666666,14.694017094017093,1.19580078125,1.69482421875,-0.09033203125,-1.129150390625,0.75531005859375,1.97601318359375,-37.48473748473749,35.23565323565323,25.639560439560437
37:00.282,0.3759765625,-0.1484375,1.990234375,0.762939453125,-1.89971923828125,-2.0904541015625,-11.545299145299145,13.644444444444444,-36.435164835164834,0.10009765625,2.0068359375,-0.287109375,-3.25775146484375,0.57220458984375,0.98419189453125,-7.197069597069596,-82.31648351648352,14.843956043956043,1.197265625,1.689453125,-0.103515625,-1.007080078125,0.74005126953125,1.93023681640625,-37.48473748473749,35.23565323565323,25.639560439560437
37:01.062,0.36572265625,-0.1875,1.98681640625,-2.5634765625,-1.71661376953125,1.129150390625,-10.645665445665445,13.044688644688645,-36.135286935286935,0.13037109375,1.9736328125,0.01904296875,11.55853271484375,-1.76239013671875,2.37274169921875,-6.297435897435897,-82.91623931623931,14.993894993894994,1.18603515625,1.70068359375,-0.07421875,-1.678466796875,1.4495849609375,1.40380859375,-36.73504273504273,36.73504273504273,26.23931623931624
37:01.891,0.36572265625,-0.1875,1.98681640625,-3.9520263671875,15.3961181640625,1.708984375,-11.545299145299145,13.344566544566543,-39.433943833943836,0.10595703125,2.0341796875,-0.20361328125,-2.8533935546875,1.3427734375,-0.17547607421875,-7.347008547008547,-82.91623931623931,16.793162393162394,1.205078125,1.69384765625,-0.09033203125,-1.04522705078125,0.69427490234375,1.922607421875,-37.634676434676436,35.08571428571428,25.78949938949939
37:02.768,0.673828125,-0.15380859375,1.8916015625,1.51824951171875,28.38134765625,13.1072998046875,-13.644444444444444,11.095482295482295,-36.73504273504273,0.1005859375,2.0185546875,-0.18408203125,-1.70135498046875,0.030517578125,1.2054443359375,-7.646886446886446,-83.36605616605617,15.743589743589743,1.19970703125,1.6953125,-0.080078125,-1.18255615234375,0.74005126953125,1.83868408203125,-37.634676434676436,36.435164835164834,27.438827838827837
37:03.695,0.69970703125,-0.2060546875,1.84423828125,1.51824951171875,28.38134765625,13.1072998046875,-13.644444444444444,11.095482295482295,-36.73504273504273,0.1005859375,2.0185546875,-0.18408203125,-4.12750244140625,0.16021728515625,0.40435791015625,-8.246642246642246,-82.76630036630036,16.193406593406593,1.20166015625,1.6943359375,-0.08740234375,-0.78582763671875,0.823974609375,1.64031982421875,-35.985347985347985,35.985347985347985,26.98901098901099
37:04.475,0.5576171875,-0.154296875,1.9677734375,-2.18963623046875,-2.02178955078125,-1.44195556640625,-12.744810744810744,9.596092796092796,-36.135286935286935,0.11767578125,2.0283203125,-0.20947265625,-4.12750244140625,0.16021728515625,0.40435791015625,-8.246642246642246,-82.76630036630036,16.193406593406593,1.20166015625,1.6943359375,-0.08740234375,-0.78582763671875,0.823974609375,1.64031982421875,-35.985347985347985,37.03492063492063,25.93943833943834
37:05.255,0.54931640625,-0.13525390625,1.99658203125,-4.4097900390625,-0.2593994140625,3.143310546875,-13.794383394383393,7.347008547008547,-38.98412698412698,0.09033203125,2.0185546875,-0.19091796875,-3.3721923828125,-0.26702880859375,0.54168701171875,-7.197069597069596,-81.26691086691086,13.794383394383393,1.20068359375,1.697265625,-0.080078125,-0.9918212890625,0.54168701171875,2.0294189453125,-35.985347985347985,37.03492063492063,25.93943833943834
37:06.035,0.36572265625,-0.1494140625,2.04248046875,-2.46429443359375,-8.056640625,-3.66973876953125,-9.895970695970696,7.796825396825397,-36.58510378510378,0.08837890625,2.04541015625,-0.16796875,-2.7313232421875,-0.51116943359375,0.93841552734375,-7.646886446886446,-82.16654456654456,14.993894993894994,1.19384765625,1.705078125,-0.09619140625,-1.007080078125,0.75531005859375,1.708984375,-38.53431013431013,35.53553113553114,24.88986568986569
37:06.815,0.36572265625,-0.1494140625,2.04248046875,-1.24359130859375,0.75531005859375,-3.19671630859375,-11.395360195360196,10.645665445665445,-37.18485958485958,0.09814453125,2.017578125,-0.17578125,-2.43377685546875,1.48773193359375,0.61798095703125,-6.747252747252747,-82.31648351648352,16.943101343101343,1.2001953125,1.6962890625,-0.08203125,-0.946044921875,0.6103515625,2.0599365234375,-37.634676434676436,35.08571428571428,27.13894993894994
37:07.838,0.6513671875,-0.16650390625,1.9453125,-0.38909912109375,-2.8533935546875,-0.06866455078125,-11.695238095238095,9.895970695970696,-40.33357753357753,0.11669921875,2.03466796875,-0.16845703125,-3.89862060546875,-1.71661376953125,2.0599365234375,-9.446153846153846,-81.11697191697192,12.894749694749695,1.19873046875,1.69775390625,-0.09521484375,-0.80108642578125,0.75531005859375,2.15911865234375,-37.634676434676436,35.08571428571428,25.33968253968254
37:08.618,0.35546875,-0.18212890625,1.9970703125,-0.38909912109375,-2.8533935546875,-0.06866455078125,-11.695238095238095,9.895970695970696,-40.33357753357753,0.11669921875,2.03466796875,-0.16845703125,-3.5552978515625,0.1983642578125,1.31988525390625,-8.246642246642246,-83.06617826617827,15.143833943833943,1.19873046875,1.69775390625,-0.09521484375,-1.251220703125,0.4730224609375,2.1209716796875,-39.28400488400488,34.485958485958484,26.689133089133087
37:09.398,0.05810546875,-0.24853515625,2.0478515625,-1.73187255859375,-2.02178955078125,1.8463134765625,-12.444932844932845,13.044688644688645,-38.53431013431013,0.11376953125,2.04345703125,-0.18212890625,-3.5552978515625,0.1983642578125,1.31988525390625,-8.246642246642246,-83.06617826617827,15.143833943833943,1.19677734375,1.69482421875,-0.08935546875,-1.251220703125,0.4730224609375,2.1209716796875,-39.28400488400488,34.485958485958484,26.689133089133087
37:10.178,0.42333984375,-0.21142578125,1.96142578125,-11.11602783203125,7.8125,-2.7008056640625,-8.246642246642246,11.995115995115995,-31.787057387057384,0.09814453125,2.0205078125,-0.20068359375,-3.89862060546875,0.1068115234375,0.03814697265625,-8.096703296703296,-83.66593406593407,16.043467643467643,1.1953125,1.69775390625,-0.07958984375,-0.9765625,0.52642822265625,1.7852783203125,-37.48473748473749,37.33479853479853,25.639560439560437
37:11.056,0.25,-0.2802734375,2.021484375,-0.274658203125,-16.31927490234375,-2.60162353515625,-11.695238095238095,12.744810744810744,-38.234432234432234,0.09130859375,2.02490234375,-0.1806640625,-2.35748291015625,-0.54931640625,1.556396484375,-8.246642246642246,-82.76630036630036,15.893528693528692,1.19970703125,1.69677734375,-0.0810546875,-1.1138916015625,0.70953369140625,1.99127197265625,-36.58510378510378,37.18485958485958,25.03980463980464
37:11.885,0.25,-0.2802734375,2.021484375,0.579833984375,1.0528564453125,-1.27410888671875,-7.796825396825397,9.596092796092796,-36.58510378510378,0.09130859375,2.03369140625,-0.2080078125,-2.86102294921875,-0.58746337890625,1.02996826171875,-6.897191697191697,-82.16654456654456,16.49328449328449,1.19189453125,1.7021484375,-0.10302734375,-0.87738037109375,0.579833984375,1.85394287109375,-38.084493284493284,35.53553113553114,26.689133089133087
37:12.714,0.50146484375,-0.17626953125,1.95361328125,0.579833984375,1.0528564453125,-1.27410888671875,-12.744810744810744,10.945543345543346,-39.28400488400488,0.08251953125,2.03857421875,-0.2080078125,-6.7138671875,-1.6632080078125,1.556396484375,-7.646886446886446,-81.41684981684982,14.993894993894994,1.1953125,1.6953125,-0.09423828125,-0.90789794921875,1.129150390625,0.78582763671875,-35.38559218559219,37.18485958485958,24.739926739926737
37:13.591,0.38134765625,0.07080078125,1.9697265625,-2.7618408203125,18.4173583984375,-3.01361083984375,-12.744810744810744,10.945543345543346,-39.28400488400488,0.08251953125,2.03857421875,-0.2080078125,-6.7138671875,-1.6632080078125,1.556396484375,-8.396581196581197,-82.91623931623931,15.443711843711844,1.1953125,1.6953125,-0.09423828125,-0.9613037109375,0.8544921875,2.2430419921875,-36.58510378510378,36.135286935286935,26.08937728937729
37:14.371,0.12744140625,-0.18701171875,1.91064453125,-3.31878662109375,-3.0364990234375,0.946044921875,-12.894749694749695,8.996336996336996,-30.587545787545785,0.09228515625,2.02001953125,-0.18017578125,-2.44140625,-0.0457763671875,2.25830078125,-8.396581196581197,-82.91623931623931,15.443711843711844,1.201171875,1.69775390625,-0.0888671875,-0.9613037109375,0.8544921875,2.2430419921875,-36.58510378510378,36.135286935286935,26.08937728937729
37:15.200,0.31982421875,-0.185546875,1.98974609375,1.31988525390625,-56.6253662109375,-10.12420654296875,-9.596092796092796,11.695238095238095,-34.485958485958484,0.09912109375,2.02587890625,-0.18017578125,-5.30242919921875,0.244140625,0.52642822265625,-7.496947496947497,-80.96703296703296,15.143833943833943,1.19189453125,1.703125,-0.0908203125,-0.86212158203125,0.732421875,1.708984375,-36.88498168498168,36.88498168498168,25.33968253968254
37:16.028,0.64599609375,-0.146484375,1.9150390625,-2.26593017578125,-0.42724609375,0.70953369140625,-9.895970695970696,13.794383394383393,-36.135286935286935,0.083984375,2.0244140625,-0.24462890625,-2.777099609375,0.72479248046875,1.1138916015625,-4.947985347985348,-81.26691086691086,16.193406593406593,1.20654296875,1.70068359375,-0.0908203125,-1.0528564453125,1.0223388671875,2.1209716796875,-37.784615384615385,35.53553113553114,27.738705738705736
37:16.857,0.64599609375,-0.146484375,1.9150390625,3.5400390625,19.75250244140625,-1.94549560546875,-14.544078144078144,10.645665445665445,-40.33357753357753,0.09716796875,2.02783203125,-0.24365234375,-2.76947021484375,-0.67138671875,1.007080078125,-7.796825396825397,-82.76630036630036,17.692796092796094,1.19921875,1.69580078125,-0.08837890625,-0.9918212890625,0.67138671875,2.17437744140625,-37.03492063492063,34.485958485958484,25.639560439560437
37:17.637,0.18212890625,-0.0625,2.06201171875,3.5400390625,19.75250244140625,-1.94549560546875,-14.544078144078144,10.645665445665445,-40.33357753357753,0.09716796875,2.02783203125,-0.24365234375,-4.0740966796875,0.274658203125,0.92315673828125,-5.697680097680098,-81.71672771672772,15.143833943833943,1.21044921875,1.69287109375,-0.07666015625,-0.6866455078125,0.45013427734375,2.0751953125,-39.433943833943836,35.38559218559219,26.08937728937729
37:18.515,0.17822265625,-0.22265625,1.958984375,-3.91387939453125,-3.90625,-0.83160400390625,-11.545299145299145,11.845177045177044,-34.635897435897434,0.08056640625,2.03271484375,-0.19580078125,-4.0740966796875,0.274658203125,0.92315673828125,-5.697680097680098,-81.71672771672772,15.143833943833943,1.21044921875,1.69287109375,-0.07666015625,-0.6866455078125,0.45013427734375,2.0751953125,-37.634676434676436,35.08571428571428,26.83907203907204
37:19.295,0.240234375,-0.244140625,1.9931640625,-1.47247314453125,-0.1983642578125,0.06103515625,-8.396581196581197,13.644444444444444,-36.73504273504273,0.08837890625,2.02490234375,-0.248046875,-2.471923828125,0.9307861328125,1.312255859375,-6.747252747252747,-80.51721611721611,16.193406593406593,1.2021484375,1.693359375,-0.08251953125,-0.86212158203125,0.67901611328125,1.7852783203125,-37.634676434676436,35.08571428571428,26.83907203907204
37:20.075,0.31689453125,-0.23291015625,1.95263671875,6.134033203125,-6.1798095703125,0.63323974609375,-10.945543345543346,12.444932844932845,-37.18485958485958,0.07177734375,2.02734375,-0.2431640625,-1.0223388671875,-1.4801025390625,0.38909912109375,-8.246642246642246,-84.26568986568986,15.143833943833943,1.19873046875,1.6943359375,-0.0693359375,-0.274658203125,0.1678466796875,1.983642578125,-36.135286935286935,36.435164835164834,25.78949938949939
37:20.855,0.31689453125,-0.23291015625,1.95263671875,5.31005859375,-2.73895263671875,1.0223388671875,-10.495726495726496,13.644444444444444,-36.73504273504273,0.1123046875,2.00830078125,-0.21240234375,-3.9215087890625,1.5106201171875,1.312255859375,-7.197069597069596,-83.06617826617827,14.544078144078144,1.1923828125,1.69921875,-0.08349609375,-0.91552734375,0.25177001953125,2.09808349609375,-35.68547008547009,35.53553113553114,26.689133089133087
37:21.684,0.26708984375,-0.234375,1.9755859375,5.31005859375,-2.73895263671875,1.0223388671875,-10.495726495726496,13.644444444444444,-36.73504273504273,0.1123046875,2.00830078125,-0.21240234375,-0.92315673828125,-3.0364990234375,2.44903564453125,-8.096703296703296,-82.91623931623931,14.993894993894994,1.20849609375,1.6962890625,-0.08544921875,-0.92315673828125,0.74005126953125,1.74713134765625,-37.784615384615385,35.23565323565323,26.98901098901099
37:22.561,0.34912109375,-0.21630859375,2.06298828125,7.77435302734375,4.09698486328125,3.08990478515625,-9.895970695970696,13.494505494505495,-37.634676434676436,0.06787109375,2.009765625,-0.24072265625,-0.92315673828125,-3.0364990234375,2.44903564453125,-5.547741147741148,-82.61636141636141,14.694017094017093,1.20849609375,1.6962890625,-0.08544921875,-1.01470947265625,0.7476806640625,1.88446044921875,-37.18485958485958,34.635897435897434,23.99023199023199
37:23.390,0.51904296875,-0.26708984375,1.89453125,-3.35693359375,-9.17816162109375,-8.61358642578125,-9.596092796092796,12.444932844932845,-35.835409035409036,0.0927734375,2.0263671875,-0.21728515625,-3.39508056640625,0.40435791015625,1.02996826171875,-5.547741147741148,-82.61636141636141,14.694017094017093,1.201171875,1.705078125,-0.0771484375,-1.01470947265625,0.7476806640625,1.88446044921875,-37.18485958485958,34.635897435897434,23.99023199023199
37:24.170,0.56005859375,-0.2021484375,1.880859375,-0.5340576171875,1.30462646484375,-0.61798095703125,-11.995115995115995,10.645665445665445,-38.53431013431013,0.08544921875,2.0458984375,-0.185546875,-4.0435791015625,1.10626220703125,1.54876708984375,-8.096703296703296,-81.11697191697192,14.993894993894994,1.1923828125,1.69921875,-0.07958984375,-1.190185546875,0.92315673828125,1.9683837890625,-36.135286935286935,35.08571428571428,25.78949938949939
37:25.145,0.12939453125,-0.3720703125,1.79736328125,17.6849365234375,47.93548583984375,-15.73944091796875,-11.845177045177044,10.495726495726496,-37.33479853479853,0.04638671875,2.0078125,-0.13720703125,2.61688232421875,-11.90185546875,3.30352783203125,-6.297435897435897,-82.91623931623931,16.793162393162394,1.2099609375,1.68994140625,-0.09130859375,-1.62506103515625,1.62506103515625,0.64849853515625,-36.58510378510378,36.435164835164834,27.13894993894994
37:25.925,0.03125,-0.07177734375,1.9921875,-2.3040771484375,1.0986328125,0.1220703125,22.49084249084249,13.494505494505495,34.036141636141636,0.11669921875,2.02587890625,-0.21875,-3.7384033203125,-2.51007080078125,0.518798828125,-5.847619047619047,-81.41684981684982,16.043467643467643,1.21337890625,1.68115234375,-0.0888671875,-0.43487548828125,0.54168701171875,1.54876708984375,-37.48473748473749,35.985347985347985,25.639560439560437
37:26.705,0.03125,-0.07177734375,1.9921875,-2.3040771484375,1.0986328125,0.1220703125,22.49084249084249,13.494505494505495,34.036141636141636,0.11669921875,2.02587890625,-0.21875,-3.84521484375,0.91552734375,0.213623046875,-7.646886446886446,-81.86666666666666,16.793162393162394,1.19921875,1.6982421875,-0.080078125,-1.15203857421875,0.7781982421875,1.739501953125,-37.03492063492063,34.78583638583638,26.23931623931624
37:27.534,0.193359375,-0.03662109375,2.05810546875,-0.2899169921875,3.16619873046875,-0.79345703125,15.143833943833943,18.142612942612942,53.82808302808303,0.06103515625,2.0205078125,-0.28076171875,-2.38037109375,-7.9498291015625,-0.28228759765625,-6.297435897435897,-82.91623931623931,15.743589743589743,1.2353515625,1.68310546875,-0.080078125,-0.54168701171875,-0.06103515625,2.47955322265625,-37.784615384615385,37.784615384615385,25.93943833943834
37:28.460,0.04052734375,0.0029296875,1.759765625,-11.26861572265625,6.8206787109375,-82.305908203125,34.336019536019535,3.2986568986568985,8.546520146520146,0.03564453125,2.03271484375,-0.16650390625,-2.38037109375,-7.9498291015625,-0.28228759765625,-6.297435897435897,-82.91623931623931,15.743589743589743,1.2353515625,1.68310546875,-0.080078125,-0.54168701171875,-0.06103515625,2.47955322265625,-38.084493284493284,36.285225885225884,26.98901098901099
37:29.337,0.43603515625,0.005859375,2.0048828125,-0.335693359375,1.47247314453125,-0.92315673828125,8.396581196581197,3.8984126984126983,27.588766788766787,0.09228515625,2.03662109375,-0.27685546875,-3.48663330078125,0.51116943359375,0.86212158203125,-7.646886446886446,-81.11697191697192,16.49328449328449,1.205078125,1.6923828125,-0.08740234375,-1.18255615234375,0.78582763671875,1.739501953125,-38.084493284493284,36.285225885225884,26.98901098901099
37:30.215,0.427734375,0.0205078125,2.00146484375,-2.410888671875,2.9144287109375,-1.06048583984375,5.697680097680098,2.998778998778999,26.98901098901099,0.09228515625,2.0400390625,-0.2255859375,-5.1422119140625,0.9918212890625,1.15203857421875,-6.747252747252747,-81.71672771672772,16.64322344322344,1.18994140625,1.701171875,-0.08349609375,-1.3275146484375,0.6256103515625,1.96075439453125,-36.135286935286935,36.88498168498168,25.03980463980464
37:31.044,0.50634765625,0.00048828125,1.96875,-0.77056884765625,1.4190673828125,-0.6866455078125,6.747252747252747,2.249084249084249,23.690354090354088,0.08935546875,2.013671875,-0.27392578125,-2.37274169921875,-1.220703125,0.7781982421875,-6.747252747252747,-82.76630036630036,14.094261294261294,1.20068359375,1.689453125,-0.10107421875,-0.5950927734375,1.15203857421875,1.953125,-35.38559218559219,37.934554334554335,26.389255189255188
37:31.824,0.50634765625,0.00048828125,1.96875,-1.2054443359375,0.274658203125,-0.23651123046875,4.798046398046398,2.0991452991452992,25.18974358974359,0.083984375,2.01708984375,-0.2646484375,-4.35638427734375,-1.3275146484375,1.13677978515625,-7.347008547008547,-81.11697191697192,15.743589743589743,1.1953125,1.69921875,-0.08349609375,-0.3814697265625,0.99945068359375,1.9073486328125,-35.985347985347985,36.285225885225884,26.23931623931624
37:32.604,0.52587890625,0.013671875,1.9853515625,-1.2054443359375,0.274658203125,-0.23651123046875,4.798046398046398,2.0991452991452992,25.18974358974359,0.083984375,2.01708984375,-0.2646484375,-4.35638427734375,-1.3275146484375,1.13677978515625,-7.197069597069596,-82.31648351648352,16.193406593406593,1.1953125,1.69921875,-0.08349609375,-0.9002685546875,-0.2899169921875,1.47247314453125,-36.135286935286935,34.336019536019535,26.08937728937729
37:33.384,0.4990234375,0.0224609375,2.00439453125,-1.76239013671875,7.4462890625,0.30517578125,4.648107448107448,1.4993894993894994,23.99023199023199,0.091796875,2.021484375,-0.24072265625,-3.36456298828125,0.701904296875,1.12152099609375,-7.197069597069596,-82.31648351648352,16.193406593406593,1.2119140625,1.697265625,-0.0947265625,-0.9002685546875,-0.2899169921875,1.47247314453125,-36.135286935286935,34.336019536019535,26.08937728937729
37:34.213,0.4453125,0.0322265625,1.99853515625,-1.35040283203125,0.99945068359375,-0.35858154296875,4.648107448107448,1.4993894993894994,23.99023199023199,0.0908203125,2.02783203125,-0.2138671875,-2.0599365234375,-1.0833740234375,1.09100341796875,-8.546520146520146,-80.96703296703296,16.193406593406593,1.2080078125,1.6982421875,-0.0810546875,-0.87738037109375,0.57220458984375,1.82342529296875,-36.58510378510378,35.38559218559219,26.83907203907204
37:35.042,0.56005859375,-0.0107421875,1.97021484375,1.9683837890625,1.8310546875,-0.49591064453125,6.147496947496947,2.998778998778999,23.24053724053724,0.08544921875,2.02685546875,-0.24951171875,-3.082275390625,-0.030517578125,0.9765625,-8.096703296703296,-80.66715506715506,13.944322344322345,1.201171875,1.69140625,-0.091796875,-0.99945068359375,0.46539306640625,2.0294189453125,-37.18485958485958,35.38559218559219,25.03980463980464
37:35.870,0.56005859375,-0.0107421875,1.97021484375,-0.5035400390625,2.6397705078125,0.17547607421875,4.798046398046398,1.6493284493284492,24.44004884004884,0.07958984375,2.0380859375,-0.23681640625,-3.662109375,0.4119873046875,1.19781494140625,-6.897191697191697,-82.61636141636141,16.043467643467643,1.20654296875,1.6826171875,-0.08740234375,-1.007080078125,0.8087158203125,1.9683837890625,-37.03492063492063,37.33479853479853,26.689133089133087
37:36.650,0.556640625,-0.00634765625,1.97607421875,-0.5035400390625,2.6397705078125,0.17547607421875,4.798046398046398,1.6493284493284492,24.44004884004884,0.07958984375,2.0380859375,-0.23681640625,1.82342529296875,-0.26702880859375,2.03704833984375,-6.297435897435897,-81.41684981684982,17.093040293040293,1.20654296875,1.6826171875,-0.08740234375,-0.9918212890625,0.5645751953125,2.14385986328125,-36.73504273504273,35.53553113553114,26.23931623931624
37:37.430,0.62841796875,-0.01220703125,1.9453125,-1.3580322265625,0.2899169921875,-0.38909912109375,6.147496947496947,0.4498168498168498,23.99023199023199,0.087890625,2.01708984375,-0.29541015625,1.82342529296875,-0.26702880859375,2.03704833984375,-6.297435897435897,-81.41684981684982,17.093040293040293,1.19580078125,1.6943359375,-0.0888671875,-0.9918212890625,0.5645751953125,2.14385986328125,-38.98412698412698,35.38559218559219,25.78949938949939
37:38.259,0.67431640625,-0.00439453125,1.93359375,-2.5177001953125,-7.0648193359375,2.2430419921875,5.397802197802197,0.4498168498168498,23.99023199023199,0.0810546875,2.02734375,-0.2880859375,-4.150390625,-0.0152587890625,0.77056884765625,-7.796825396825397,-81.71672771672772,15.893528693528692,1.2021484375,1.69287109375,-0.0947265625,-1.068115234375,1.07574462890625,1.50299072265625,-38.98412698412698,35.38559218559219,25.78949938949939
37:39.137,0.63134765625,0.00537109375,1.943359375,-0.69427490234375,2.13623046875,0.05340576171875,4.798046398046398,1.6493284493284492,24.44004884004884,0.07421875,2.009765625,-0.33740234375,-3.0975341796875,0.3204345703125,1.007080078125,-7.796825396825397,-82.01660561660562,15.143833943833943,1.19970703125,1.69970703125,-0.095703125,-1.220703125,0.61798095703125,1.89971923828125,-38.084493284493284,35.53553113553114,24.88986568986569
37:39.916,0.66552734375,-0.0146484375,1.9404296875,-0.67138671875,3.326416015625,-0.20599365234375,4.798046398046398,1.6493284493284492,26.23931623931624,0.09130859375,2.0205078125,-0.26708984375,-2.9296875,-0.06866455078125,0.762939453125,-5.997557997557998,-81.71672771672772,14.544078144078144,1.20947265625,1.68505859375,-0.09375,-0.9002685546875,0.92315673828125,1.64031982421875,-38.98412698412698,37.18485958485958,25.03980463980464
37:40.696,0.66552734375,-0.0146484375,1.9404296875,-0.67138671875,3.326416015625,-0.20599365234375,5.097924297924298,-0.29987789987789987,24.29010989010989,0.09375,2.02294921875,-0.26953125,-3.10516357421875,0.00762939453125,0.7476806640625,-5.697680097680098,-80.51721611721611,16.193406593406593,1.2119140625,1.6943359375,-0.0869140625,-1.33514404296875,0.89263916015625,1.6021728515625,-37.03492063492063,36.73504273504273,26.23931623931624
37:41.525,0.64892578125,-0.0263671875,1.93994140625,-0.49591064453125,2.22015380859375,-0.61798095703125,5.097924297924298,-0.29987789987789987,24.29010989010989,0.09375,2.02294921875,-0.26953125,-3.10516357421875,0.00762939453125,0.7476806640625,-7.646886446886446,-81.41684981684982,15.443711843711844,1.2119140625,1.6943359375,-0.0869140625,-0.7476806640625,0.7476806640625,1.739501953125,-35.38559218559219,35.38559218559219,26.83907203907204
37:42.354,0.63232421875,0.00537109375,1.96875,-0.99945068359375,0.74005126953125,-0.3814697265625,5.247863247863248,0.0,25.18974358974359,0.10791015625,2.01708984375,-0.224609375,-2.00653076171875,1.3580322265625,1.07574462890625,-7.646886446886446,-81.41684981684982,15.443711843711844,1.19287109375,1.7021484375,-0.0947265625,-0.7476806640625,0.7476806640625,1.739501953125,-35.38559218559219,35.38559218559219,26.83907203907204
37:43.134,0.6962890625,-0.02294921875,1.93115234375,2.11334228515625,5.80596923828125,1.0986328125,6.447374847374848,2.548962148962149,25.33968253968254,0.087890625,2.02197265625,-0.25732421875,-3.448486328125,-0.90789794921875,0.9613037109375,-4.947985347985348,-80.51721611721611,17.992673992673993,1.2080078125,1.69091796875,-0.09326171875,-1.07574462890625,0.72479248046875,1.74713134765625,-38.38437118437118,35.08571428571428,26.389255189255188
37:43.963,0.619140625,0.00341796875,1.9462890625,-1.25885009765625,1.2969970703125,-0.457763671875,5.397802197802197,0.14993894993894993,24.29010989010989,0.07958984375,2.01513671875,-0.2666015625,-3.57818603515625,0.48065185546875,1.25885009765625,-8.096703296703296,-83.36605616605617,14.694017094017093,1.212890625,1.69091796875,-0.0966796875,-1.2054443359375,0.63323974609375,2.20489501953125,-36.73504273504273,36.285225885225884,26.23931623931624
37:44.791,0.619140625,0.00341796875,1.9462890625,-1.25885009765625,1.2969970703125,-0.457763671875,3.1487179487179486,0.0,22.79072039072039,0.09326171875,2.02587890625,-0.244140625,-3.02886962890625,-0.16021728515625,0.9002685546875,-5.997557997557998,-82.01660561660562,16.193406593406593,1.20556640625,1.68896484375,-0.09619140625,-1.0986328125,0.3814697265625,1.76239013671875,-37.48473748473749,37.33479853479853,25.18974358974359
37:45.669,0.65771484375,-0.01513671875,1.943359375,-0.98419189453125,-0.40435791015625,-0.244140625,3.1487179487179486,0.0,22.79072039072039,0.09326171875,2.02587890625,-0.244140625,-2.86102294921875,-0.72479248046875,0.98419189453125,-6.597313797313797,-82.61636141636141,15.743589743589743,1.20068359375,1.69140625,-0.091796875,-1.06048583984375,0.8087158203125,1.8463134765625,-36.88498168498168,34.336019536019535,25.78949938949939
37:46.451,0.61181640625,0.00537109375,1.96240234375,-0.83160400390625,3.6773681640625,-0.66375732421875,4.648107448107448,0.4498168498168498,23.24053724053724,0.08056640625,2.04296875,-0.26953125,-2.86102294921875,-0.72479248046875,0.98419189453125,-6.597313797313797,-82.61636141636141,15.743589743589743,1.20068359375,1.69140625,-0.091796875,-1.06048583984375,0.8087158203125,1.8463134765625,-38.83418803418803,35.985347985347985,26.689133089133087
37:47.278,-0.0029296875,-0.34130859375,1.77978515625,16.5863037109375,27.22930908203125,98.44970703125,5.247863247863248,4.1982905982905985,23.39047619047619,0.02880859375,2.033203125,-0.181640625,-10.55908203125,5.30242919921875,0.18310546875,-9.446153846153846,-81.11697191697192,15.743589743589743,1.201171875,1.69091796875,-0.083984375,-0.823974609375,1.3580322265625,1.220703125,-38.83418803418803,35.985347985347985,26.689133089133087
37:48.058,0.529296875,-0.23193359375,1.8828125,7.27081298828125,29.5257568359375,12.79449462890625,10.195848595848595,5.697680097680098,30.287667887667887,0.08203125,2.03076171875,-0.21337890625,-1.48773193359375,0.55694580078125,0.93841552734375,-5.847619047619047,-82.16654456654456,17.842735042735043,1.20068359375,1.69287109375,-0.091796875,-0.95367431640625,0.42724609375,2.28118896484375,-35.23565323565323,35.53553113553114,24.88986568986569
37:48.838,0.529296875,-0.23193359375,1.8828125,-5.68389892578125,18.5089111328125,-1.88446044921875,-9.296214896214895,12.444932844932845,-36.58510378510378,0.06689453125,2.05810546875,-0.21875,-6.69097900390625,1.0528564453125,3.24249267578125,-5.997557997557998,-80.21733821733821,14.843956043956043,1.19384765625,1.6943359375,-0.0869140625,-0.9002685546875,0.54168701171875,2.410888671875,-37.18485958485958,34.635897435897434,25.33968253968254
37:49.715,0.46923828125,-0.27197265625,1.97509765625,-5.68389892578125,18.5089111328125,-1.88446044921875,-9.596092796092796,12.744810744810744,-37.634676434676436,0.08740234375,2.02294921875,-0.205078125,-3.0059814453125,0.49591064453125,0.64849853515625,-8.396581196581197,-82.16654456654456,14.993894993894994,1.1962890625,1.6943359375,-0.09423828125,-1.129150390625,0.8697509765625,1.953125,-35.985347985347985,35.23565323565323,26.98901098901099
37:50.495,0.3779296875,-0.1962890625,1.9833984375,-1.678466796875,-3.7689208984375,-1.7547607421875,-9.596092796092796,12.744810744810744,-37.634676434676436,0.08740234375,2.02294921875,-0.205078125,-3.0059814453125,0.49591064453125,0.64849853515625,-8.546520146520146,-82.76630036630036,15.143833943833943,1.1962890625,1.6943359375,-0.09423828125,-1.129150390625,0.8697509765625,1.953125,-36.73504273504273,35.53553113553114,26.98901098901099
37:51.324,0.19140625,-0.27197265625,2.013671875,0.1373291015625,2.22015380859375,1.617431640625,-8.396581196581197,14.394139194139193,-36.73504273504273,0.076171875,2.02783203125,-0.18994140625,-1.09100341796875,0.4119873046875,0.66375732421875,-8.546520146520146,-82.76630036630036,15.143833943833943,1.2021484375,1.69140625,-0.0849609375,-0.95367431640625,1.01470947265625,1.73187255859375,-36.73504273504273,35.53553113553114,26.98901098901099
37:52.202,0.43798828125,-0.208984375,1.9638671875,-0.7171630859375,10.88714599609375,-0.75531005859375,-7.646886446886446,14.694017094017093,-35.68547008547009,0.08984375,2.02880859375,-0.2939453125,-2.7618408203125,1.8768310546875,1.19781494140625,-7.197069597069596,-81.71672771672772,15.893528693528692,1.20947265625,1.6953125,-0.09033203125,-0.87738037109375,0.96893310546875,1.739501953125,-36.73504273504273,35.23565323565323,24.88986568986569
37:53.031,0.416015625,-0.171875,1.994140625,-1.74713134765625,-7.7972412109375,-1.8157958984375,-9.596092796092796,11.995115995115995,-36.58510378510378,0.10986328125,2.05419921875,-0.19921875,-5.2947998046875,-0.9002685546875,0.43487548828125,-6.747252747252747,-82.31648351648352,14.843956043956043,1.19189453125,1.70166015625,-0.09716796875,-0.9002685546875,0.6866455078125,2.57110595703125,-38.084493284493284,38.084493284493284,28.788278388278385
37:53.811,0.416015625,-0.171875,1.994140625,22.3541259765625,25.20751953125,-2.7313232421875,-11.545299145299145,12.145054945054945,-38.38437118437118,0.1435546875,2.0185546875,-0.2783203125,4.90570068359375,3.8909912109375,-1.9989013671875,-7.796825396825397,-81.71672771672772,15.893528693528692,1.2080078125,1.69140625,-0.103515625,-1.220703125,0.732421875,1.8310546875,-37.784615384615385,36.73504273504273,25.18974358974359
37:54.590,0.6591796875,0.04052734375,2.0537109375,22.3541259765625,25.20751953125,-2.7313232421875,-11.545299145299145,12.145054945054945,-38.38437118437118,0.1435546875,2.0185546875,-0.2783203125,-9.68170166015625,2.7008056640625,0.6561279296875,-7.796825396825397,-82.31648351648352,16.193406593406593,1.212890625,1.6943359375,-0.08203125,-1.01470947265625,0.32806396484375,2.50244140625,-37.934554334554335,37.18485958485958,26.389255189255188
37:55.517,0.45947265625,0.0166015625,1.99267578125,-1.45721435546875,-1.2664794921875,-2.31170654296875,5.247863247863248,4.498168498168498,22.49084249084249,0.07763671875,2.01953125,-0.158203125,-9.68170166015625,2.7008056640625,0.6561279296875,-8.396581196581197,-82.61636141636141,16.793162393162394,1.22021484375,1.68798828125,-0.09375,-1.13677978515625,0.457763671875,2.26593017578125,-37.784615384615385,34.485958485958484,25.93943833943834
37:56.443,0.56494140625,0.0029296875,1.97509765625,-1.2664794921875,-0.51116943359375,0.0457763671875,4.648107448107448,2.249084249084249,25.639560439560437,0.07958984375,2.041015625,-0.2236328125,-3.37982177734375,-0.640869140625,0.8087158203125,-8.396581196581197,-82.61636141636141,16.793162393162394,1.22021484375,1.68798828125,-0.09375,-1.13677978515625,0.457763671875,2.26593017578125,-37.784615384615385,34.485958485958484,25.93943833943834
37:57.223,0.6005859375,-0.02001953125,1.96337890625,-0.31280517578125,2.40325927734375,-0.70953369140625,7.796825396825397,2.998778998778999,19.19218559218559,0.0888671875,2.02392578125,-0.19873046875,-3.8909912109375,0.0,0.90789794921875,-9.446153846153846,-82.91623931623931,16.043467643467643,1.21337890625,1.685546875,-0.10107421875,-1.28936767578125,0.6103515625,1.8157958984375,-36.73504273504273,35.985347985347985,27.288888888888888
37:58.003,0.6083984375,-0.0283203125,1.95654296875,-3.36456298828125,-2.05230712890625,-3.39508056640625,5.847619047619047,1.3494505494505493,24.14017094017094,0.072265625,2.0361328125,-0.16552734375,-3.47900390625,-0.5950927734375,1.0986328125,-6.897191697191697,-82.16654456654456,16.043467643467643,1.2109375,1.6884765625,-0.09521484375,-0.91552734375,0.762939453125,1.97601318359375,-36.58510378510378,36.135286935286935,24.739926739926737
37:58.880,0.6083984375,-0.0283203125,1.95654296875,-1.06048583984375,-2.18963623046875,-0.396728515625,6.597313797313797,0.29987789987789987,20.09181929181929,0.072265625,2.0341796875,-0.1513671875,-2.7008056640625,-0.3204345703125,0.80108642578125,-6.747252747252747,-83.51599511599511,15.893528693528692,1.203125,1.69580078125,-0.09716796875,-0.98419189453125,0.93841552734375,2.01416015625,-38.68424908424908,33.88620268620269,27.438827838827837
37:59.662,0.611328125,-0.0009765625,1.95361328125,-1.06048583984375,-2.18963623046875,-0.396728515625,6.597313797313797,0.29987789987789987,20.09181929181929,0.072265625,2.0341796875,-0.1513671875,-3.74603271484375,-0.06103515625,-0.34332275390625,-6.447374847374848,-84.56556776556776,15.893528693528692,1.203125,1.69580078125,-0.09716796875,-0.79345703125,0.78582763671875,1.67083740234375,-37.784615384615385,34.78583638583638,25.639560439560437
38:00.538,0.6767578125,-0.017578125,1.9306640625,-1.3427734375,0.99945068359375,-0.31280517578125,4.798046398046398,1.6493284493284492,23.84029304029304,0.09619140625,2.01708984375,-0.21142578125,-3.74603271484375,-0.06103515625,-0.34332275390625,-7.347008547008547,-83.36605616605617,14.993894993894994,1.21044921875,1.685546875,-0.08984375,-0.79345703125,0.78582763671875,1.67083740234375,-37.784615384615385,35.53553113553114,26.689133089133087
38:01.318,0.65283203125,-0.01171875,1.9443359375,-1.06048583984375,0.60272216796875,-0.67901611328125,4.348229548229548,-0.8996336996336995,23.99023199023199,0.07373046875,1.98681640625,-0.26904296875,-0.14495849609375,2.13623046875,0.8087158203125,-7.347008547008547,-83.36605616605617,14.993894993894994,1.20703125,1.703125,-0.10888671875,-0.78582763671875,0.6256103515625,1.76239013671875,-37.784615384615385,35.53553113553114,26.689133089133087
38:02.147,0.6591796875,-0.00634765625,1.9462890625,-0.9307861328125,0.9307861328125,0.60272216796875,4.798046398046398,1.0495726495726496,23.84029304029304,0.06494140625,2.025390625,-0.30810546875,-3.92913818359375,-2.15911865234375,1.861572265625,-6.297435897435897,-83.36605616605617,15.743589743589743,1.20849609375,1.68408203125,-0.08349609375,-1.2054443359375,0.92315673828125,1.46484375,-38.68424908424908,35.68547008547009,26.08937728937729
38:02.928,0.61865234375,-0.009765625,1.94384765625,-1.0833740234375,0.732421875,0.0152587890625,5.097924297924298,0.4498168498168498,23.690354090354088,0.08203125,2.01904296875,-0.271484375,-2.1209716796875,0.1220703125,1.25885009765625,-6.897191697191697,-81.11697191697192,15.443711843711844,1.20068359375,1.685546875,-0.0908203125,-0.946044921875,0.90789794921875,1.40380859375,-37.18485958485958,35.38559218559219,26.83907203907204
38:03.804,0.61865234375,-0.009765625,1.94384765625,-1.0833740234375,0.732421875,0.0152587890625,4.348229548229548,0.4498168498168498,24.29010989010989,0.07666015625,2.03076171875,-0.2958984375,-3.45611572265625,-1.51824951171875,0.9002685546875,-7.496947496947497,-84.26568986568986,16.193406593406593,1.20947265625,1.68994140625,-0.099609375,-1.0528564453125,0.823974609375,2.044677734375,-37.48473748473749,35.985347985347985,26.23931623931624
38:04.730,0.6376953125,-0.005859375,1.951171875,-1.3275146484375,1.28936767578125,0.274658203125,5.247863247863248,1.3494505494505493,23.84029304029304,0.087890625,2.0263671875,-0.27490234375,-2.40325927734375,-0.0762939453125,1.068115234375,-6.897191697191697,-83.36605616605617,14.394139194139193,1.20458984375,1.69091796875,-0.09033203125,-1.2054443359375,0.84686279296875,1.94549560546875,-37.18485958485958,36.135286935286935,24.739926739926737
38:05.510,0.64453125,0.00244140625,1.93994140625,-1.373291015625,0.762939453125,-0.02288818359375,5.247863247863248,1.3494505494505493,23.84029304029304,0.087890625,2.0263671875,-0.27490234375,-2.40325927734375,-0.0762939453125,1.068115234375,-6.897191697191697,-83.36605616605617,14.394139194139193,1.20458984375,1.69091796875,-0.09033203125,-1.2054443359375,0.84686279296875,1.94549560546875,-37.934554334554335,35.68547008547009,26.389255189255188
38:06.292,0.67138671875,-0.00732421875,1.9130859375,-1.953125,-1.88446044921875,0.9918212890625,5.397802197802197,-0.5997557997557997,23.690354090354088,0.0732421875,2.0302734375,-0.2412109375,-3.27301025390625,0.2899169921875,1.6632080078125,-6.297435897435897,-82.61636141636141,15.443711843711844,1.19921875,1.697265625,-0.08203125,-1.39617919921875,1.06048583984375,1.60980224609375,-37.934554334554335,35.68547008547009,26.389255189255188
38:07.070,0.67236328125,-0.0068359375,1.93017578125,-0.96893310546875,0.6561279296875,-0.0152587890625,5.097924297924298,0.4498168498168498,23.24053724053724,0.09033203125,2.0244140625,-0.24072265625,-3.53240966796875,-2.02178955078125,0.43487548828125,-4.798046398046398,-81.11697191697192,16.49328449328449,1.20361328125,1.68798828125,-0.08642578125,-0.8392333984375,0.7171630859375,1.9378662109375,-35.835409035409036,35.68547008547009,25.78949938949939
38:07.850,0.67236328125,-0.0068359375,1.93017578125,-1.4495849609375,0.823974609375,-0.98419189453125,5.397802197802197,1.1995115995115995,24.589987789987788,0.06982421875,2.02587890625,-0.23876953125,-5.47027587890625,1.9378662109375,0.40435791015625,-7.347008547008547,-81.86666666666666,15.743589743589743,1.21337890625,1.69091796875,-0.0908203125,-0.762939453125,0.7171630859375,1.88446044921875,-39.433943833943836,36.135286935286935,26.389255189255188
38:08.728,0.66259765625,-0.0009765625,1.94775390625,-1.4495849609375,0.823974609375,-0.98419189453125,5.697680097680098,0.7496947496947497,24.29010989010989,0.0751953125,2.033203125,-0.2412109375,-2.899169921875,0.25177001953125,0.67138671875,-6.747252747252747,-81.26691086691086,15.893528693528692,1.1982421875,1.68994140625,-0.0888671875,-1.129150390625,0.99945068359375,1.77001953125,-35.835409035409036,34.336019536019535,27.13894993894994
38:09.605,0.65771484375,-0.013671875,1.9228515625,-1.12152099609375,1.0833740234375,0.152587890625,5.697680097680098,0.7496947496947497,24.29010989010989,0.0751953125,2.033203125,-0.2412109375,-2.899169921875,0.25177001953125,0.67138671875,-5.997557997557998,-81.71672771672772,16.943101343101343,1.1982421875,1.68994140625,-0.0888671875,-0.6561279296875,0.38909912109375,2.08282470703125,-37.18485958485958,35.38559218559219,26.83907203907204
38:10.386,0.689453125,-0.01318359375,1.9267578125,-1.50299072265625,-0.1068115234375,0.0,6.147496947496947,1.1995115995115995,24.29010989010989,0.0830078125,2.01806640625,-0.24462890625,-2.83050537109375,0.06103515625,1.46484375,-5.997557997557998,-81.71672771672772,16.943101343101343,1.20751953125,1.69140625,-0.091796875,-0.6561279296875,0.38909912109375,2.08282470703125,-38.68424908424908,34.635897435897434,26.389255189255188
38:11.263,0.67724609375,-0.02197265625,1.92724609375,-1.09100341796875,0.7171630859375,-0.5950927734375,5.247863247863248,-0.4498168498168498,24.44004884004884,0.06787109375,2.0146484375,-0.208984375,-3.875732421875,0.6103515625,1.0833740234375,-7.347008547008547,-82.61636141636141,15.743589743589743,1.205078125,1.68701171875,-0.08984375,-0.92315673828125,0.823974609375,1.82342529296875,-38.68424908424908,34.635897435897434,26.389255189255188
38:12.092,0.6796875,-0.01025390625,1.9365234375,-0.84686279296875,1.007080078125,0.06866455078125,6.147496947496947,0.4498168498168498,24.589987789987788,0.06982421875,2.0244140625,-0.21435546875,-2.593994140625,-0.42724609375,0.9613037109375,-6.747252747252747,-83.51599511599511,15.593650793650793,1.19873046875,1.69580078125,-0.08642578125,-1.13677978515625,0.74005126953125,1.6937255859375,-37.18485958485958,36.435164835164834,26.83907203907204
38:13.020,0.68896484375,-0.0048828125,1.93505859375,-1.30462646484375,1.02996826171875,-0.28228759765625,5.397802197802197,-0.8996336996336995,25.03980463980464,0.07275390625,2.0126953125,-0.21630859375,-3.68499755859375,0.274658203125,1.6021728515625,-8.246642246642246,-81.71672771672772,17.692796092796094,1.2080078125,1.6904296875,-0.08837890625,-1.18255615234375,0.8392333984375,1.8768310546875,-37.03492063492063,34.78583638583638,27.288888888888888
38:13.798,0.68896484375,-0.0048828125,1.93505859375,-1.2664794921875,0.87738037109375,-0.2593994140625,4.1982905982905985,0.0,22.79072039072039,0.06689453125,2.02490234375,-0.22021484375,-2.6092529296875,0.335693359375,0.7476806640625,-7.496947496947497,-81.71672771672772,14.544078144078144,1.189453125,1.7197265625,-0.1015625,-2.86102294921875,-1.88446044921875,1.4190673828125,-36.285225885225884,36.285225885225884,26.98901098901099
38:14.724,0.68359375,-0.01025390625,1.93408203125,-1.2664794921875,0.87738037109375,-0.2593994140625,5.247863247863248,0.5997557997557997,24.739926739926737,0.07080078125,2.0146484375,-0.21484375,-4.180908203125,0.41961669921875,0.89263916015625,-7.347008547008547,-82.61636141636141,16.49328449328449,1.20751953125,1.689453125,-0.09228515625,-1.48773193359375,0.244140625,2.09808349609375,-37.18485958485958,35.38559218559219,26.389255189255188
38:15.602,0.6865234375,-0.0146484375,1.92822265625,-1.251220703125,0.9765625,-0.091552734375,5.247863247863248,0.5997557997557997,24.739926739926737,0.07080078125,2.0146484375,-0.21484375,-2.0599365234375,-0.42724609375,1.30462646484375,-7.496947496947497,-82.01660561660562,14.094261294261294,1.20751953125,1.689453125,-0.09228515625,-0.6866455078125,0.92315673828125,1.708984375,-38.68424908424908,33.88620268620269,25.78949938949939
38:16.431,0.67041015625,-0.01953125,1.93115234375,-1.04522705078125,0.64849853515625,0.3662109375,5.247863247863248,1.0495726495726496,22.79072039072039,0.0712890625,2.03125,-0.21728515625,-2.0599365234375,-0.42724609375,1.30462646484375,-7.197069597069596,-82.31648351648352,15.893528693528692,1.21044921875,1.6845703125,-0.1044921875,-0.6866455078125,0.92315673828125,1.708984375,-37.784615384615385,35.985347985347985,26.689133089133087
38:17.308,0.68896484375,-0.0029296875,1.92333984375,-1.19781494140625,1.41143798828125,-0.0152587890625,3.7484737484737485,-0.4498168498168498,23.09059829059829,0.06201171875,2.04541015625,-0.20751953125,-3.3111572265625,0.37384033203125,0.90789794921875,-7.197069597069596,-82.31648351648352,15.893528693528692,1.212890625,1.68212890625,-0.0849609375,-1.25885009765625,0.1220703125,1.9989013671875,-37.784615384615385,35.985347985347985,26.689133089133087
38:18.137,0.70751953125,-0.01171875,1.91357421875,-1.27410888671875,0.45013427734375,-0.244140625,6.147496947496947,-0.5997557997557997,21.89108669108669,0.0703125,2.0166015625,-0.18359375,-1.9073486328125,0.16021728515625,0.61798095703125,-7.347008547008547,-82.61636141636141,17.093040293040293,1.2119140625,1.68505859375,-0.09619140625,-4.669189453125,-3.90625,1.5106201171875,-36.58510378510378,36.135286935286935,28.188522588522588
38:19.063,0.68798828125,-0.0087890625,1.9248046875,-1.1749267578125,0.6866455078125,0.09918212890625,5.397802197802197,-0.5997557997557997,24.589987789987788,0.0732421875,2.03125,-0.21142578125,-2.70843505859375,-0.4119873046875,1.06048583984375,-7.197069597069596,-82.01660561660562,15.143833943833943,1.2080078125,1.68310546875,-0.087890625,-3.34930419921875,-2.03704833984375,2.2430419921875,-36.88498168498168,34.635897435897434,26.83907203907204
38:19.942,0.7080078125,-0.01806640625,1.9150390625,-0.63323974609375,-1.76239013671875,-1.3275146484375,4.348229548229548,-0.5997557997557997,22.94065934065934,0.05029296875,2.05517578125,-0.2080078125,-3.4637451171875,1.1749267578125,1.10626220703125,-8.096703296703296,-82.61636141636141,17.093040293040293,1.21240234375,1.6923828125,-0.0703125,-0.54931640625,1.251220703125,2.60162353515625,-38.38437118437118,35.38559218559219,26.08937728937729
38:20.721,0.7080078125,-0.01806640625,1.9150390625,-0.63323974609375,-1.76239013671875,-1.3275146484375,5.247863247863248,0.29987789987789987,24.44004884004884,0.080078125,2.01611328125,-0.26171875,-2.8076171875,-0.6561279296875,0.83160400390625,-5.997557997557998,-82.76630036630036,15.893528693528692,1.203125,1.68603515625,-0.09130859375,-1.50299072265625,0.32806396484375,1.83868408203125,-37.03492063492063,37.33479853479853,25.93943833943834
38:21.647,0.75830078125,-0.04345703125,1.91845703125,-11.5203857421875,-8.4075927734375,-1.89208984375,4.798046398046398,-0.7496947496947497,23.84029304029304,0.07373046875,2.02001953125,-0.22412109375,-3.6163330078125,-0.66375732421875,1.19781494140625,-8.246642246642246,-82.01660561660562,16.64322344322344,1.21533203125,1.69091796875,-0.09033203125,-0.8392333984375,1.1749267578125,1.739501953125,-38.084493284493284,35.53553113553114,27.288888888888888
38:22.573,0.572265625,-0.0244140625,1.9775390625,-0.7171630859375,-6.3934326171875,-2.49481201171875,4.798046398046398,-0.7496947496947497,23.84029304029304,0.06201171875,2.02490234375,-0.25830078125,-3.4942626953125,1.76239013671875,0.946044921875,-7.347008547008547,-82.16654456654456,16.043467643467643,1.205078125,1.68994140625,-0.09033203125,-0.7476806640625,0.67138671875,1.71661376953125,-36.73504273504273,36.285225885225884,25.639560439560437
38:23.548,0.60302734375,-0.02880859375,1.94677734375,-3.509521484375,-2.84576416015625,-0.732421875,5.847619047619047,1.6493284493284492,24.739926739926737,0.06201171875,2.02490234375,-0.25830078125,-3.4942626953125,1.76239013671875,0.946044921875,-6.297435897435897,-81.41684981684982,16.49328449328449,1.205078125,1.68994140625,-0.09033203125,-1.16729736328125,0.98419189453125,1.99127197265625,-37.18485958485958,37.18485958485958,25.33968253968254
38:24.426,0.58544921875,-0.01220703125,1.9423828125,-0.91552734375,-1.80816650390625,-0.16021728515625,4.648107448107448,0.7496947496947497,24.29010989010989,0.0703125,2.02392578125,-0.20166015625,-3.85284423828125,-0.61798095703125,0.84686279296875,-6.297435897435897,-81.41684981684982,16.49328449328449,1.20556640625,1.69091796875,-0.0849609375,-1.16729736328125,0.98419189453125,1.99127197265625,-37.03492063492063,37.33479853479853,24.88986568986569
38:25.254,0.60400390625,-0.01220703125,1.953125,-0.9613037109375,-0.37384033203125,-0.396728515625,3.598534798534798,0.4498168498168498,24.29010989010989,0.064453125,2.0146484375,-0.19970703125,-2.37274169921875,0.43487548828125,1.25885009765625,-5.997557997557998,-81.71672771672772,15.893528693528692,1.25390625,1.6904296875,-0.1015625,-0.49591064453125,3.10516357421875,1.3580322265625,-37.03492063492063,37.33479853479853,24.88986568986569
38:26.230,0.6083984375,-0.01611328125,1.9580078125,-0.99945068359375,0.89263916015625,-0.1678466796875,4.648107448107448,0.7496947496947497,22.94065934065934,0.06982421875,2.02392578125,-0.1943359375,-2.76947021484375,-1.13677978515625,0.9613037109375,-5.547741147741148,-81.11697191697192,16.793162393162394,1.208984375,1.689453125,-0.0859375,-0.78582763671875,0.48828125,1.73187255859375,-37.18485958485958,36.435164835164834,26.83907203907204
38:27.058,0.60498046875,-0.0224609375,1.9296875,-2.166748046875,-0.14495849609375,-0.69427490234375,5.247863247863248,0.5997557997557997,24.44004884004884,0.0673828125,2.0322265625,-0.21142578125,-3.02886962890625,-0.48828125,0.81634521484375,-7.796825396825397,-81.26691086691086,16.64322344322344,1.21484375,1.68994140625,-0.076171875,-0.95367431640625,0.701904296875,2.09808349609375,-36.58510378510378,35.08571428571428,27.438827838827837
38:28.084,0.58154296875,-0.025390625,1.90869140625,1.02996826171875,-0.54168701171875,1.93023681640625,4.1982905982905985,1.6493284493284492,23.09059829059829,0.0751953125,2.02685546875,-0.20458984375,-3.37982177734375,0.43487548828125,0.93841552734375,-6.897191697191697,-82.16654456654456,16.49328449328449,1.21044921875,1.68896484375,-0.09423828125,-0.8087158203125,0.6866455078125,1.77001953125,-37.48473748473749,36.73504273504273,26.689133089133087
38:29.057,0.6162109375,-0.0048828125,1.96044921875,-0.58746337890625,0.75531005859375,0.37384033203125,4.1982905982905985,2.0991452991452992,23.84029304029304,0.064453125,2.03173828125,-0.2568359375,-2.70843505859375,-0.885009765625,1.3275146484375,-6.447374847374848,-82.01660561660562,16.943101343101343,1.20947265625,1.69384765625,-0.09423828125,-1.09100341796875,0.9918212890625,1.60980224609375,-38.38437118437118,34.635897435897434,26.08937728937729
38:29.934,0.6328125,-0.01611328125,1.943359375,-1.50299072265625,0.92315673828125,-0.31280517578125,5.247863247863248,1.6493284493284492,23.84029304029304,0.08056640625,2.029296875,-0.2138671875,-3.48663330078125,-0.37384033203125,1.12152099609375,-5.997557997557998,-81.71672771672772,15.893528693528692,1.19091796875,1.689453125,-0.08837890625,-0.9002685546875,0.8544921875,1.983642578125,-37.634676434676436,35.38559218559219,26.83907203907204
38:30.763,0.6328125,-0.01611328125,1.943359375,-1.50299072265625,0.92315673828125,-0.31280517578125,5.397802197802197,0.4498168498168498,23.24053724053724,0.0791015625,2.04150390625,-0.20361328125,-3.814697265625,0.2899169921875,1.35040283203125,-6.747252747252747,-82.76630036630036,15.143833943833943,1.2119140625,1.689453125,-0.0869140625,-1.09100341796875,0.9307861328125,2.22015380859375,-37.18485958485958,38.234432234432234,24.739926739926737
38:31.543,0.6279296875,0.00244140625,1.9765625,-1.373291015625,1.190185546875,-0.11444091796875,5.397802197802197,0.4498168498168498,23.24053724053724,0.0791015625,2.04150390625,-0.20361328125,-3.814697265625,0.2899169921875,1.35040283203125,-5.697680097680098,-80.96703296703296,13.794383394383393,1.2119140625,1.689453125,-0.0869140625,-1.09100341796875,0.9307861328125,2.22015380859375,-38.68424908424908,34.635897435897434,26.389255189255188
38:32.323,0.61669921875,-0.00732421875,1.95263671875,-0.9002685546875,1.19781494140625,-0.1373291015625,4.648107448107448,2.548962148962149,21.59120879120879,0.0615234375,2.02490234375,-0.2177734375,-3.0517578125,0.25177001953125,0.5340576171875,-5.697680097680098,-80.96703296703296,13.794383394383393,1.20361328125,1.6865234375,-0.08203125,-0.9307861328125,0.89263916015625,1.77001953125,-38.68424908424908,34.635897435897434,26.389255189255188
38:33.152,0.615234375,-0.0166015625,1.9501953125,-1.59454345703125,0.640869140625,-0.06866455078125,5.547741147741148,1.6493284493284492,24.739926739926737,0.07958984375,2.0283203125,-0.2216796875,-2.62451171875,-0.20599365234375,0.823974609375,-6.447374847374848,-79.76752136752137,15.893528693528692,1.2197265625,1.69384765625,-0.09228515625,-1.02996826171875,0.78582763671875,2.15911865234375,-37.634676434676436,36.135286935286935,25.03980463980464
38:34.176,0.61328125,-0.00732421875,1.9521484375,-1.0528564453125,1.007080078125,-0.09918212890625,5.847619047619047,3.8984126984126983,22.04102564102564,0.06689453125,2.03857421875,-0.2294921875,-3.36456298828125,-0.396728515625,0.90789794921875,-7.496947496947497,-80.96703296703296,14.544078144078144,1.2099609375,1.68994140625,-0.08740234375,-0.79345703125,0.579833984375,1.8463134765625,-38.53431013431013,38.084493284493284,25.93943833943834
38:34.958,0.6103515625,-0.009765625,1.94873046875,-1.71661376953125,0.99945068359375,-0.25177001953125,5.097924297924298,0.4498168498168498,23.99023199023199,0.0751953125,2.0361328125,-0.197265625,-2.44140625,-0.3662109375,0.93841552734375,-6.897191697191697,-81.86666666666666,16.49328449328449,1.2060546875,1.6953125,-0.08642578125,-0.9765625,0.45013427734375,2.17437744140625,-37.18485958485958,36.88498168498168,26.08937728937729
38:35.882,0.6103515625,-0.009765625,1.94873046875,-1.38092041015625,0.823974609375,0.0457763671875,4.348229548229548,3.598534798534798,21.89108669108669,0.06494140625,2.04638671875,-0.21728515625,-3.997802734375,0.762939453125,0.9765625,-7.197069597069596,-82.31648351648352,16.193406593406593,1.2041015625,1.6904296875,-0.09814453125,-1.190185546875,0.6103515625,1.983642578125,-36.58510378510378,35.38559218559219,26.83907203907204
38:36.760,0.6201171875,-0.00830078125,1.9521484375,-1.38092041015625,0.823974609375,0.0457763671875,5.247863247863248,0.29987789987789987,24.739926739926737,0.06591796875,2.02880859375,-0.2197265625,-3.18145751953125,0.26702880859375,0.8392333984375,-6.897191697191697,-82.16654456654456,17.54285714285714,1.1982421875,1.68896484375,-0.08740234375,-1.28936767578125,0.7171630859375,1.800537109375,-37.634676434676436,35.38559218559219,26.83907203907204
38:37.686,0.609375,-0.01171875,1.9365234375,-1.617431640625,0.518798828125,-0.19073486328125,7.646886446886446,1.0495726495726496,17.242979242979242,0.080078125,2.052734375,-0.17041015625,-2.8839111328125,-1.28936767578125,0.8544921875,-7.796825396825397,-82.31648351648352,16.193406593406593,1.2021484375,1.69677734375,-0.08935546875,-0.9918212890625,0.9765625,1.51824951171875,-36.58510378510378,34.635897435897434,28.188522588522588
38:38.612,0.62255859375,-0.01123046875,1.947265625,-0.9307861328125,1.15203857421875,-0.02288818359375,5.097924297924298,1.1995115995115995,23.99023199023199,0.05908203125,2.01806640625,-0.23681640625,-3.6163330078125,0.66375732421875,0.69427490234375,-8.246642246642246,-82.01660561660562,15.893528693528692,1.20751953125,1.69091796875,-0.08740234375,-1.2054443359375,0.75531005859375,2.03704833984375,-36.88498168498168,35.38559218559219,27.438827838827837
38:39.782,0.609375,-0.01025390625,1.9658203125,-1.3427734375,0.99945068359375,-0.54168701171875,7.197069597069596,1.4993894993894994,20.24175824175824,0.0771484375,2.02490234375,-0.17041015625,-4.547119140625,-0.18310546875,1.007080078125,-6.297435897435897,-81.41684981684982,16.793162393162394,1.21044921875,1.6845703125,-0.0810546875,-1.0986328125,0.61798095703125,1.96075439453125,-37.48473748473749,36.73504273504273,26.23931623931624
38:40.855,0.62255859375,-0.01513671875,1.9619140625,-0.732421875,1.79290771484375,0.03814697265625,6.597313797313797,0.0,24.739926739926737,0.0712890625,2.021484375,-0.15380859375,-2.63214111328125,0.030517578125,1.07574462890625,-7.347008547008547,-81.11697191697192,16.043467643467643,1.20458984375,1.69189453125,-0.08349609375,-1.0223388671875,0.8697509765625,1.71661376953125,-37.03492063492063,35.985347985347985,24.88986568986569
38:41.927,0.85693359375,-0.09033203125,1.9140625,-7.04193115234375,-3.5247802734375,8.03375244140625,4.048351648351648,0.4498168498168498,24.29010989010989,0.0830078125,2.0517578125,-0.1552734375,-4.52423095703125,0.213623046875,1.6937255859375,-5.697680097680098,-83.81587301587301,17.39291819291819,1.19677734375,1.689453125,-0.09228515625,-1.33514404296875,0.69427490234375,1.9989013671875,-36.73504273504273,34.78583638583638,25.639560439560437
38:42.868,0.85693359375,-0.09033203125,1.9140625,-0.1678466796875,2.7618408203125,-0.0457763671875,5.097924297924298,-2.0991452991452992,25.93943833943834,0.0810546875,2.03271484375,-0.1650390625,-3.47137451171875,0.19073486328125,0.823974609375,-7.347008547008547,-81.41684981684982,18.142612942612942,1.205078125,1.68798828125,-0.08984375,-1.129150390625,0.83160400390625,1.89208984375,-37.48473748473749,35.985347985347985,25.93943833943834
38:43.975,0.60595703125,0.0029296875,1.94775390625,-1.251220703125,0.63323974609375,-0.25177001953125,4.798046398046398,0.0,25.18974358974359,0.08984375,2.0244140625,-0.12548828125,-2.26593017578125,0.457763671875,0.732421875,-7.197069597069596,-82.01660561660562,16.943101343101343,1.20556640625,1.6904296875,-0.091796875,-0.8544921875,0.57220458984375,1.89971923828125,-37.03492063492063,35.53553113553114,26.23931623931624
38:44.901,0.60595703125,0.0029296875,1.94775390625,-1.1444091796875,1.0986328125,-0.6103515625,3.4485958485958483,1.6493284493284492,23.39047619047619,0.08154296875,2.052734375,-0.13720703125,-3.45611572265625,0.55694580078125,1.15966796875,-7.347008547008547,-82.61636141636141,16.793162393162394,1.21044921875,1.69384765625,-0.0888671875,-0.8392333984375,0.80108642578125,2.18963623046875,-39.28400488400488,36.73504273504273,25.639560439560437
38:46.021,0.630859375,0.0029296875,1.9462890625,-1.15203857421875,1.62506103515625,-0.213623046875,4.048351648351648,2.249084249084249,25.93943833943834,0.076171875,2.025390625,-0.12548828125,-3.326416015625,0.31280517578125,1.3427734375,-8.546520146520146,-83.06617826617827,15.593650793650793,1.205078125,1.69775390625,-0.08837890625,-1.06048583984375,0.80108642578125,1.9683837890625,-36.73504273504273,35.985347985347985,27.738705738705736
38:47.095,0.623046875,0.00390625,1.958984375,-0.98419189453125,1.33514404296875,-0.4119873046875,6.597313797313797,2.848840048840049,22.79072039072039,0.09375,2.03076171875,-0.0947265625,-2.84576416015625,1.04522705078125,1.06048583984375,-7.197069597069596,-81.71672771672772,17.692796092796094,1.2001953125,1.693359375,-0.08154296875,-1.04522705078125,0.579833984375,1.70135498046875,-38.53431013431013,35.53553113553114,24.14017094017094
38:48.070,0.60986328125,-0.00048828125,1.9345703125,-0.640869140625,3.80706787109375,0.25177001953125,5.847619047619047,0.0,24.44004884004884,0.0810546875,2.03955078125,-0.13623046875,-3.71551513671875,-0.1983642578125,0.87738037109375,-7.347008547008547,-82.16654456654456,16.793162393162394,1.20703125,1.69775390625,-0.08837890625,-1.068115234375,0.98419189453125,1.94549560546875,-35.985347985347985,35.53553113553114,25.639560439560437
38:48.947,0.6220703125,0.0048828125,1.95654296875,-1.60980224609375,-0.49591064453125,-0.25177001953125,4.798046398046398,1.0495726495726496,25.489621489621488,0.0791015625,2.037109375,-0.22265625,-0.6103515625,-0.60272216796875,0.64849853515625,-7.646886446886446,-82.16654456654456,18.892307692307693,1.20947265625,1.69189453125,-0.0859375,-1.13677978515625,0.60272216796875,1.86920166015625,-36.88498168498168,35.68547008547009,25.33968253968254
38:49.825,0.6220703125,0.0048828125,1.95654296875,-1.04522705078125,0.48065185546875,-0.30517578125,4.798046398046398,0.29987789987789987,24.14017094017094,0.07177734375,2.037109375,-0.228515625,-3.753662109375,0.35858154296875,1.04522705078125,-6.297435897435897,-82.61636141636141,16.49328449328449,1.2001953125,1.6943359375,-0.0947265625,-0.8087158203125,0.6866455078125,1.77001953125,-35.985347985347985,35.985347985347985,25.18974358974359
38:50.800,0.6171875,0.0,1.94091796875,-1.922607421875,-2.1209716796875,0.091552734375,6.147496947496947,0.7496947496947497,25.03980463980464,0.0595703125,2.03515625,-0.2412109375,-5.59234619140625,-0.74005126953125,1.09100341796875,-5.997557997557998,-81.26691086691086,15.893528693528692,1.201171875,1.69384765625,-0.09130859375,-1.03759765625,0.7476806640625,1.800537109375,-38.38437118437118,36.88498168498168,25.33968253968254
38:51.726,0.6279296875,0.00390625,1.94775390625,-1.922607421875,-2.1209716796875,0.091552734375,6.147496947496947,-0.29987789987789987,24.589987789987788,0.08642578125,2.0263671875,-0.1826171875,-2.5482177734375,-0.4730224609375,0.5645751953125,-7.796825396825397,-81.71672771672772,17.992673992673993,1.21142578125,1.68798828125,-0.09619140625,-0.8697509765625,0.74005126953125,1.93023681640625,-36.73504273504273,34.186080586080585,25.93943833943834
38:52.798,0.595703125,-0.01220703125,1.98779296875,-1.28173828125,1.4495849609375,-0.0457763671875,5.097924297924298,0.7496947496947497,25.03980463980464,0.07177734375,2.0234375,-0.2119140625,-2.288818359375,-0.640869140625,0.89263916015625,-7.646886446886446,-82.61636141636141,16.793162393162394,1.19482421875,1.68994140625,-0.09033203125,-1.0223388671875,0.45013427734375,1.83868408203125,-37.934554334554335,35.68547008547009,27.438827838827837
38:53.822,0.5556640625,-0.0087890625,1.94970703125,-1.15203857421875,0.84686279296875,0.1220703125,4.498168498168498,3.8984126984126983,24.44004884004884,0.08349609375,2.02490234375,-0.18017578125,-2.3193359375,0.31280517578125,1.251220703125,-7.796825396825397,-82.01660561660562,16.943101343101343,1.208984375,1.68798828125,-0.0888671875,-1.04522705078125,0.8544921875,2.0294189453125,-37.934554334554335,37.18485958485958,27.13894993894994
38:54.651,0.57958984375,-0.013671875,1.98193359375,-1.15203857421875,0.84686279296875,0.1220703125,4.498168498168498,3.8984126984126983,24.44004884004884,0.08349609375,2.02490234375,-0.18017578125,-2.99835205078125,0.23651123046875,0.762939453125,-7.496947496947497,-82.31648351648352,16.64322344322344,1.20703125,1.6962890625,-0.08642578125,-1.068115234375,0.5340576171875,1.983642578125,-37.18485958485958,37.634676434676436,25.78949938949939
38:55.626,0.59716796875,0.0009765625,1.94775390625,-1.0986328125,-0.16021728515625,-0.5950927734375,5.847619047619047,0.5997557997557997,25.489621489621488,0.08740234375,2.0283203125,-0.1826171875,-4.0130615234375,0.3509521484375,1.36566162109375,-6.897191697191697,-82.61636141636141,16.043467643467643,1.20703125,1.6962890625,-0.08642578125,-0.9765625,0.640869140625,1.80816650390625,-37.18485958485958,36.135286935286935,25.78949938949939
38:56.503,0.57861328125,-0.01025390625,1.94384765625,-1.068115234375,0.7476806640625,-0.3662109375,5.547741147741148,1.0495726495726496,24.14017094017094,0.0810546875,2.0244140625,-0.18603515625,-4.0130615234375,0.3509521484375,1.36566162109375,-6.897191697191697,-82.61636141636141,16.043467643467643,1.20703125,1.69287109375,-0.095703125,-0.9765625,0.640869140625,1.80816650390625,-36.73504273504273,34.78583638583638,26.689133089133087
38:57.283,0.78076171875,0.0205078125,1.94873046875,-1.3427734375,-1.39617919921875,-1.556396484375,6.297435897435897,0.29987789987789987,23.84029304029304,0.0830078125,2.02587890625,-0.18701171875,-2.58636474609375,0.1983642578125,0.8087158203125,-6.447374847374848,-82.31648351648352,16.64322344322344,1.2001953125,1.6962890625,-0.1015625,-1.15966796875,0.84686279296875,2.0294189453125,-37.18485958485958,37.634676434676436,27.13894993894994
38:58.307,0.6044921875,0.00146484375,1.96435546875,-0.5950927734375,3.8299560546875,-0.06103515625,6.147496947496947,0.14993894993894993,23.99023199023199,0.09619140625,2.0322265625,-0.216796875,-4.37164306640625,0.640869140625,1.0986328125,-7.197069597069596,-82.76630036630036,16.64322344322344,1.20703125,1.69970703125,-0.078125,-1.0986328125,0.72479248046875,2.0599365234375,-36.58510378510378,36.88498168498168,26.08937728937729
38:59.331,0.60302734375,0.00830078125,1.9521484375,-1.0833740234375,1.434326171875,-0.457763671875,6.297435897435897,1.0495726495726496,23.39047619047619,0.08837890625,2.04150390625,-0.1796875,-3.10516357421875,0.05340576171875,0.9765625,-8.546520146520146,-82.76630036630036,15.893528693528692,1.21826171875,1.6884765625,-0.1015625,-2.50244140625,0.38909912109375,1.15203857421875,-37.03492063492063,36.285225885225884,26.23931623931624
39:00.306,0.6123046875,0.005859375,1.93115234375,-1.54876708984375,0.0762939453125,-0.61798095703125,4.798046398046398,-0.4498168498168498,25.489621489621488,0.0771484375,2.01806640625,-0.18310546875,-2.3193359375,0.89263916015625,0.79345703125,-7.796825396825397,-81.26691086691086,16.943101343101343,1.2109375,1.6923828125,-0.0966796875,-0.8544921875,0.946044921875,1.64794921875,-37.03492063492063,36.285225885225884,26.23931623931624
39:01.135,0.60498046875,-0.00341796875,1.96435546875,-1.4801025390625,0.40435791015625,-0.0762939453125,5.397802197802197,1.1995115995115995,25.03980463980464,0.078125,2.0283203125,-0.1982421875,-2.51007080078125,-0.4425048828125,1.0223388671875,-8.546520146520146,-81.71672771672772,15.593650793650793,1.20703125,1.6943359375,-0.08447265625,-0.8697509765625,0.84686279296875,1.77764892578125,-36.88498168498168,34.635897435897434,27.13894993894994
39:01.915,0.6005859375,-0.01416015625,1.95263671875,-0.8544921875,1.57928466796875,-0.30517578125,5.247863247863248,2.0991452991452992,24.739926739926737,0.07958984375,2.029296875,-0.18505859375,-2.34222412109375,-0.00762939453125,1.0528564453125,-5.997557997557998,-81.26691086691086,15.143833943833943,1.21484375,1.69677734375,-0.10009765625,-0.9613037109375,0.9918212890625,2.044677734375,-37.18485958485958,36.88498168498168,26.389255189255188
39:02.890,0.6005859375,-0.01416015625,1.95263671875,-1.38092041015625,1.33514404296875,-0.213623046875,4.498168498168498,0.5997557997557997,25.78949938949939,0.05712890625,2.02490234375,-0.2646484375,-3.70025634765625,0.9765625,0.9613037109375,-7.347008547008547,-82.61636141636141,16.49328449328449,1.20361328125,1.6865234375,-0.08154296875,-0.92315673828125,0.43487548828125,1.6021728515625,-36.88498168498168,36.135286935286935,27.13894993894994
39:03.719,0.62841796875,-0.0048828125,1.9560546875,-1.38092041015625,1.33514404296875,-0.213623046875,5.697680097680098,-0.5997557997557997,25.03980463980464,0.06396484375,2.02734375,-0.19677734375,-2.00653076171875,-0.2288818359375,1.16729736328125,-8.396581196581197,-83.36605616605617,16.043467643467643,1.20703125,1.6923828125,-0.09912109375,-1.15966796875,0.79345703125,1.83868408203125,-36.73504273504273,35.23565323565323,25.639560439560437
39:04.498,0.6240234375,0.00341796875,1.96875,-1.93023681640625,-2.105712890625,-0.86212158203125,5.697680097680098,-0.5997557997557997,25.03980463980464,0.06396484375,2.02734375,-0.19677734375,-2.00653076171875,-0.2288818359375,1.16729736328125,-7.796825396825397,-80.51721611721611,16.64322344322344,1.20703125,1.6923828125,-0.09912109375,-1.1138916015625,0.58746337890625,1.739501953125,-36.73504273504273,34.186080586080585,26.689133089133087
39:05.425,0.6259765625,-0.009765625,1.947265625,-1.434326171875,-1.21307373046875,-1.18255615234375,3.598534798534798,0.7496947496947497,25.33968253968254,0.076171875,2.01611328125,-0.20556640625,-3.814697265625,0.09918212890625,1.42669677734375,-6.447374847374848,-83.81587301587301,15.893528693528692,1.2119140625,1.6865234375,-0.083984375,-1.03759765625,0.98419189453125,1.80816650390625,-36.58510378510378,35.08571428571428,26.08937728937729
39:07.177,0.6474609375,-0.009765625,1.94873046875,-1.0986328125,3.48663330078125,-0.08392333984375,4.798046398046398,1.3494505494505493,24.14017094017094,0.07568359375,2.01708984375,-0.22119140625,-2.9754638671875,0.396728515625,1.03759765625,-8.246642246642246,-83.06617826617827,15.893528693528692,1.1943359375,1.68798828125,-0.08935546875,-0.67901611328125,1.15203857421875,1.99127197265625,-37.934554334554335,37.934554334554335,27.438827838827837
39:08.009,0.6787109375,-0.02490234375,1.921875,-2.35748291015625,1.76239013671875,2.3651123046875,5.847619047619047,0.29987789987789987,25.18974358974359,0.0693359375,2.02880859375,-0.26953125,-4.913330078125,0.1068115234375,0.89263916015625,-7.347008547008547,-81.11697191697192,16.043467643467643,1.203125,1.68505859375,-0.09130859375,-1.28173828125,0.80108642578125,1.800537109375,-36.58510378510378,35.38559218559219,26.389255189255188
39:08.837,0.6787109375,-0.02490234375,1.921875,-6.195068359375,-4.7454833984375,-3.3721923828125,4.498168498168498,1.6493284493284492,22.04102564102564,0.0830078125,2.037109375,-0.1845703125,-2.3345947265625,0.17547607421875,0.42724609375,-9.146275946275946,-81.41684981684982,16.793162393162394,1.234375,1.650390625,-0.1044921875,-2.2735595703125,-2.532958984375,3.44085693359375,-38.084493284493284,35.53553113553114,26.98901098901099
39:09.764,0.71533203125,-0.03564453125,1.93701171875,-6.195068359375,-4.7454833984375,-3.3721923828125,6.147496947496947,1.1995115995115995,24.589987789987788,0.07958984375,2.03125,-0.23095703125,-2.5634765625,0.3662109375,1.31988525390625,-6.747252747252747,-81.26691086691086,16.193406593406593,1.21044921875,1.6865234375,-0.09765625,-1.2969970703125,1.40380859375,1.65557861328125,-37.18485958485958,36.88498168498168,27.438827838827837
39:10.690,0.7275390625,-0.04150390625,1.9140625,1.09100341796875,4.79888916015625,0.78582763671875,5.097924297924298,0.4498168498168498,23.690354090354088,0.0830078125,2.013671875,-0.1943359375,-1.678466796875,1.09100341796875,0.9002685546875,-8.246642246642246,-80.96703296703296,16.193406593406593,1.2138671875,1.693359375,-0.087890625,-0.7171630859375,0.1373291015625,2.09808349609375,-37.18485958485958,35.68547008547009,24.739926739926737
39:11.714,0.72412109375,-0.02001953125,1.90283203125,1.09100341796875,4.79888916015625,0.78582763671875,5.247863247863248,-0.4498168498168498,23.84029304029304,0.0712890625,2.0283203125,-0.20458984375,-2.777099609375,-0.31280517578125,0.9613037109375,-7.347008547008547,-83.36605616605617,17.093040293040293,1.21435546875,1.69140625,-0.091796875,-0.946044921875,0.61798095703125,1.77001953125,-35.985347985347985,36.285225885225884,25.639560439560437
39:12.640,0.65380859375,-0.00830078125,1.93896484375,-0.95367431640625,4.50897216796875,-0.6103515625,4.648107448107448,5.097924297924298,20.841514041514042,0.078125,2.04931640625,-0.1796875,-2.44140625,0.732421875,1.33514404296875,-6.447374847374848,-80.96703296703296,14.544078144078144,1.2021484375,1.69580078125,-0.08837890625,-1.0223388671875,1.0223388671875,2.105712890625,-36.88498168498168,35.08571428571428,26.08937728937729
39:13.517,0.638671875,0.00048828125,1.94140625,-0.92315673828125,2.66265869140625,-0.06103515625,4.648107448107448,5.097924297924298,20.841514041514042,0.078125,2.04931640625,-0.1796875,-2.44140625,0.732421875,1.33514404296875,-7.646886446886446,-82.91623931623931,14.394139194139193,1.2021484375,1.69580078125,-0.08837890625,-1.0223388671875,1.0223388671875,2.105712890625,-37.18485958485958,36.135286935286935,25.33968253968254
39:14.299,0.630859375,-0.00439453125,1.95068359375,-1.0986328125,0.579833984375,-0.20599365234375,6.447374847374848,0.4498168498168498,23.690354090354088,0.0693359375,2.03857421875,-0.21435546875,-3.11279296875,-0.518798828125,0.8392333984375,-7.646886446886446,-82.91623931623931,14.394139194139193,1.2099609375,1.68798828125,-0.091796875,-1.25885009765625,0.66375732421875,1.74713134765625,-37.18485958485958,36.135286935286935,25.33968253968254
39:15.224,0.6123046875,0.00537109375,1.93017578125,-1.09100341796875,0.5035400390625,-0.091552734375,4.1982905982905985,1.0495726495726496,21.741147741147742,0.07080078125,2.015625,-0.2646484375,-3.08990478515625,0.8544921875,0.90789794921875,-9.296214896214895,-78.71794871794872,13.794383394383393,1.20068359375,1.68505859375,-0.09326171875,-1.10626220703125,0.70953369140625,1.85394287109375,-37.48473748473749,35.985347985347985,26.689133089133087
39:16.101,0.71630859375,-0.0029296875,1.9267578125,-5.4931640625,-5.55419921875,-0.95367431640625,5.547741147741148,-0.7496947496947497,22.49084249084249,0.07177734375,2.0322265625,-0.22021484375,-5.3253173828125,-5.035400390625,1.16729736328125,-6.297435897435897,-81.86666666666666,16.793162393162394,1.20947265625,1.6953125,-0.08154296875,-0.18310546875,0.030517578125,2.7313232421875,-37.18485958485958,35.38559218559219,25.03980463980464
39:16.930,-0.169921875,0.20166015625,2.21728515625,-29.88433837890625,7.43865966796875,-37.40692138671875,4.498168498168498,3.1487179487179486,20.99145299145299,0.048828125,2.0537109375,-0.27880859375,1.0528564453125,-2.1820068359375,2.62451171875,-7.646886446886446,-81.41684981684982,16.49328449328449,1.2138671875,1.6748046875,-0.09716796875,-0.17547607421875,-1.22833251953125,4.89044189453125,-38.83418803418803,36.73504273504273,27.288888888888888
39:17.710,-0.169921875,0.20166015625,2.21728515625,-29.88433837890625,7.43865966796875,-37.40692138671875,7.347008547008547,13.044688644688645,-2.399023199023199,0.0830078125,2.0224609375,-0.3017578125,-1.64031982421875,0.06866455078125,1.1444091796875,-7.347008547008547,-81.41684981684982,16.043467643467643,1.23828125,1.66357421875,-0.1279296875,-1.07574462890625,0.83160400390625,1.76239013671875,-37.784615384615385,36.285225885225884,26.98901098901099
39:18.587,0.4990234375,-0.02392578125,1.9970703125,-0.2288818359375,1.8157958984375,1.10626220703125,7.347008547008547,13.044688644688645,-2.399023199023199,0.0830078125,2.0224609375,-0.3017578125,-11.11602783203125,0.72479248046875,3.36456298828125,-8.996336996336996,-82.76630036630036,16.193406593406593,1.220703125,1.677734375,-0.1357421875,-1.02996826171875,2.64739990234375,-0.51116943359375,-37.03492063492063,35.23565323565323,25.639560439560437
39:19.562,0.15966796875,-0.3720703125,1.603515625,36.3006591796875,9.84954833984375,122.894287109375,4.1982905982905985,2.848840048840049,19.34212454212454,0.0888671875,2.0556640625,-0.2099609375,-0.78582763671875,-1.94549560546875,3.28826904296875,-7.197069597069596,-82.31648351648352,15.593650793650793,1.228515625,1.66552734375,-0.13525390625,-1.4801025390625,0.29754638671875,1.76239013671875,-36.73504273504273,36.285225885225884,26.23931623931624
39:20.440,-0.0859375,-0.0048828125,2.0458984375,-3.16619873046875,6.40869140625,27.0233154296875,8.846398046398047,5.397802197802197,28.338461538461537,0.06494140625,2.01513671875,-0.2705078125,-0.78582763671875,-1.94549560546875,3.28826904296875,-7.197069597069596,-82.31648351648352,15.593650793650793,1.228515625,1.66552734375,-0.13525390625,-1.4801025390625,0.29754638671875,1.76239013671875,-36.73504273504273,36.285225885225884,26.23931623931624
39:21.222,-0.03857421875,-0.2490234375,2.056640625,-8.00323486328125,-18.86749267578125,0.518798828125,47.230769230769226,19.49206349206349,27.588766788766787,0.111328125,2.01513671875,-0.1806640625,-5.4473876953125,-3.7689208984375,1.18255615234375,-7.496947496947497,-82.76630036630036,17.692796092796094,1.23876953125,1.65283203125,-0.12158203125,-0.6866455078125,0.3662109375,2.41851806640625,-39.883760683760684,35.985347985347985,25.93943833943834
39:22.000,0.5966796875,-0.2138671875,1.90625,-18.7835693359375,-30.09796142578125,4.69207763671875,47.380708180708176,25.78949938949939,66.57289377289376,0.1064453125,2.0390625,-0.244140625,-4.547119140625,0.29754638671875,0.823974609375,-9.146275946275946,-82.91623931623931,16.49328449328449,1.2412109375,1.66357421875,-0.12548828125,-0.9613037109375,0.90789794921875,1.7852783203125,-37.634676434676436,34.635897435897434,25.03980463980464
39:22.780,0.5966796875,-0.2138671875,1.90625,-18.7835693359375,-30.09796142578125,4.69207763671875,-10.345787545787545,13.794383394383393,-31.037362637362637,0.072265625,2.02734375,-0.3125,-1.3580322265625,-0.213623046875,1.73187255859375,-5.847619047619047,-82.91623931623931,14.694017094017093,1.24169921875,1.67041015625,-0.1240234375,-1.03759765625,0.64849853515625,1.9073486328125,-38.084493284493284,35.985347985347985,26.689133089133087
39:23.560,0.3427734375,-0.15283203125,1.99951171875,-1.28173828125,-2.1514892578125,-0.579833984375,-10.345787545787545,13.794383394383393,-31.037362637362637,0.072265625,2.02734375,-0.3125,-1.3580322265625,-0.213623046875,1.73187255859375,-5.997557997557998,-81.26691086691086,13.494505494505495,1.24169921875,1.67041015625,-0.1240234375,-1.01470947265625,1.02996826171875,1.62506103515625,-35.08571428571428,35.68547008547009,26.83907203907204
39:24.437,0.36181640625,-0.193359375,1.94580078125,-6.378173828125,2.3651123046875,7.16400146484375,-10.945543345543346,16.64322344322344,-30.737484737484735,0.09130859375,2.025390625,-0.27783203125,-2.06756591796875,-0.25177001953125,2.09808349609375,-5.997557997557998,-81.26691086691086,13.494505494505495,1.2412109375,1.6591796875,-0.1240234375,-1.01470947265625,1.02996826171875,1.62506103515625,-35.08571428571428,35.68547008547009,26.83907203907204
39:25.217,0.34814453125,-0.1611328125,1.98193359375,-12.04681396484375,-2.0904541015625,-2.84576416015625,-10.645665445665445,14.843956043956043,-30.437606837606836,0.0888671875,2.0244140625,-0.2578125,-2.75421142578125,-0.396728515625,1.44195556640625,-6.447374847374848,-79.76752136752137,16.193406593406593,1.22705078125,1.677734375,-0.12109375,-1.0986328125,0.8544921875,1.53350830078125,-38.084493284493284,36.285225885225884,27.288888888888888
39:26.046,0.33935546875,-0.05419921875,2.142578125,-1.312255859375,-13.08441162109375,-1.35040283203125,-7.496947496947497,13.044688644688645,-31.487179487179485,0.107421875,2.013671875,-0.2197265625,-2.20489501953125,-3.47137451171875,1.09100341796875,-7.197069597069596,-82.31648351648352,16.193406593406593,1.2373046875,1.671875,-0.1357421875,-0.9918212890625,1.2054443359375,1.52587890625,-39.28400488400488,34.78583638583638,25.93943833943834
39:26.826,0.33935546875,-0.05419921875,2.142578125,-35.51483154296875,33.76007080078125,10.31494140625,-9.596092796092796,10.195848595848595,-25.639560439560437,0.07958984375,2.0146484375,-0.27197265625,-7.2021484375,-0.89263916015625,0.42724609375,-6.297435897435897,-80.66715506715506,15.743589743589743,1.2412109375,1.666015625,-0.1181640625,-0.63323974609375,0.396728515625,2.60162353515625,-37.18485958485958,36.135286935286935,25.78949938949939
39:27.706,0.2861328125,-0.07275390625,2.18115234375,-35.51483154296875,33.76007080078125,10.31494140625,-9.596092796092796,10.195848595848595,-25.639560439560437,0.07958984375,2.0146484375,-0.27197265625,-4.18853759765625,0.7476806640625,0.885009765625,-5.547741147741148,-81.41684981684982,17.093040293040293,1.23828125,1.67236328125,-0.1220703125,-0.823974609375,0.7476806640625,1.68609619140625,-38.38437118437118,35.08571428571428,26.83907203907204
39:28.532,0.1396484375,-0.16552734375,2.07177734375,-2.69317626953125,-4.119873046875,-0.86212158203125,-9.446153846153846,14.394139194139193,-25.18974358974359,0.1044921875,2.015625,-0.232421875,-4.18853759765625,0.7476806640625,0.885009765625,-6.447374847374848,-80.96703296703296,16.943101343101343,1.23828125,1.67236328125,-0.1220703125,-0.823974609375,0.7476806640625,1.68609619140625,-36.285225885225884,34.78583638583638,27.288888888888888
39:29.312,0.0380859375,-0.22265625,2.05029296875,-1.007080078125,0.63323974609375,0.0,-6.297435897435897,19.042246642246642,-28.93821733821734,0.07421875,2.03369140625,-0.271484375,-2.51007080078125,-0.08392333984375,1.04522705078125,-6.447374847374848,-80.96703296703296,16.943101343101343,1.236328125,1.6630859375,-0.1279296875,-0.762939453125,0.61798095703125,1.71661376953125,-36.285225885225884,34.78583638583638,27.288888888888888
39:30.190,0.08544921875,-0.2001953125,2.02587890625,-0.08392333984375,-3.24249267578125,0.4119873046875,-1.6493284493284492,19.042246642246642,-26.08937728937729,0.080078125,2.03662109375,-0.23046875,-2.54058837890625,-1.07574462890625,1.36566162109375,-7.796825396825397,-82.01660561660562,15.593650793650793,1.23583984375,1.67333984375,-0.10888671875,-0.93841552734375,0.66375732421875,1.8768310546875,-37.18485958485958,35.68547008547009,25.78949938949939
39:30.970,0.3505859375,-0.14306640625,2.04443359375,-4.8675537109375,-1.4801025390625,-3.36456298828125,-4.947985347985348,14.544078144078144,-29.687912087912085,0.08203125,2.0244140625,-0.234375,-3.082275390625,-0.26702880859375,1.251220703125,-7.646886446886446,-81.86666666666666,14.694017094017093,1.22314453125,1.67822265625,-0.12158203125,-1.04522705078125,0.67138671875,2.38037109375,-37.03492063492063,35.985347985347985,26.23931623931624
39:31.750,0.3505859375,-0.14306640625,2.04443359375,-4.8675537109375,-1.4801025390625,-3.36456298828125,-10.495726495726496,16.793162393162394,-33.28644688644688,0.09423828125,1.9970703125,-0.2412109375,0.0,1.800537109375,0.3204345703125,-6.747252747252747,-82.31648351648352,16.193406593406593,1.2373046875,1.66357421875,-0.1162109375,-0.41961669921875,0.6103515625,2.26593017578125,-36.88498168498168,37.18485958485958,25.78949938949939
39:32.725,0.5263671875,0.03857421875,1.8544921875,1.4190673828125,8.36181640625,5.6915283203125,6.597313797313797,1.3494505494505493,25.489621489621488,0.076171875,2.02880859375,-0.236328125,-3.631591796875,-0.63323974609375,1.04522705078125,-8.546520146520146,-81.26691086691086,15.893528693528692,1.22900390625,1.67041015625,-0.125,-1.4495849609375,0.25177001953125,2.4261474609375,-37.03492063492063,34.485958485958484,28.03858363858364
39:33.554,0.4951171875,-0.0146484375,1.9970703125,-1.04522705078125,3.01361083984375,-0.41961669921875,6.597313797313797,1.3494505494505493,25.489621489621488,0.076171875,2.02880859375,-0.236328125,-3.631591796875,-0.63323974609375,1.04522705078125,-8.696459096459096,-80.66715506715506,17.842735042735043,1.22900390625,1.67041015625,-0.125,-0.640869140625,0.732421875,2.41851806640625,-35.68547008547009,36.73504273504273,26.98901098901099
39:34.384,0.07177734375,0.2431640625,2.01123046875,-2.410888671875,-3.12042236328125,-1.22833251953125,4.648107448107448,1.9492063492063492,24.589987789987788,0.03564453125,2.0732421875,-0.185546875,-5.01251220703125,1.02996826171875,2.8228759765625,-8.696459096459096,-80.66715506715506,17.842735042735043,1.22607421875,1.6689453125,-0.1259765625,-0.640869140625,0.732421875,2.41851806640625,-37.784615384615385,35.53553113553114,25.93943833943834
39:35.309,-0.15673828125,-0.07666015625,1.91357421875,-9.1552734375,-32.501220703125,32.29522705078125,9.746031746031745,-7.197069597069596,-1.4993894993894994,0.05908203125,2.0546875,-0.150390625,-3.9215087890625,7.59124755859375,1.6632080078125,-5.997557997557998,-83.06617826617827,15.593650793650793,1.224609375,1.67236328125,-0.12060546875,-1.31988525390625,-1.678466796875,3.25775146484375,-37.784615384615385,35.53553113553114,25.93943833943834
39:36.089,0.0703125,-0.32568359375,2.24072265625,-0.946044921875,9.10186767578125,2.00653076171875,6.747252747252747,13.344566544566543,-2.998778998778999,0.07373046875,2.01708984375,-0.24853515625,-0.92315673828125,-0.80108642578125,0.18310546875,-4.798046398046398,-80.06739926739927,16.793162393162394,1.2333984375,1.6611328125,-0.1240234375,-1.2664794921875,1.4190673828125,1.3427734375,-36.88498168498168,37.18485958485958,26.83907203907204
39:36.966,0.470703125,-0.1298828125,1.95361328125,-1.983642578125,10.62774658203125,1.0833740234375,-3.2986568986568985,16.64322344322344,-29.687912087912085,0.06591796875,2.01806640625,-0.29931640625,-4.15802001953125,2.0294189453125,0.91552734375,-5.847619047619047,-82.61636141636141,14.694017094017093,1.23876953125,1.6591796875,-0.12939453125,-0.70953369140625,0.81634521484375,1.678466796875,-35.985347985347985,36.285225885225884,25.18974358974359
39:37.746,0.470703125,-0.1298828125,1.95361328125,-1.983642578125,10.62774658203125,1.0833740234375,-10.645665445665445,15.293772893772893,-36.88498168498168,0.07958984375,2.0107421875,-0.248046875,-4.9285888671875,-1.2359619140625,1.2054443359375,-7.496947496947497,-80.51721611721611,16.64322344322344,1.2421875,1.662109375,-0.12255859375,-1.03759765625,0.87738037109375,1.922607421875,-38.53431013431013,35.23565323565323,24.88986568986569
39:38.526,0.48876953125,-0.04345703125,2.10107421875,-12.50457763671875,-17.0745849609375,5.9051513671875,-10.645665445665445,15.293772893772893,-36.88498168498168,0.07958984375,2.0107421875,-0.248046875,-4.9285888671875,-1.2359619140625,1.2054443359375,-7.197069597069596,-82.76630036630036,15.143833943833943,1.2421875,1.662109375,-0.12255859375,-1.03759765625,0.87738037109375,1.922607421875,-38.084493284493284,35.53553113553114,25.639560439560437
39:39.306,0.5263671875,-0.18603515625,1.96923828125,1.64794921875,0.06103515625,-0.67138671875,-12.294993894993894,11.095482295482295,-32.686691086691084,0.0751953125,2.0341796875,-0.25537109375,-1.48773193359375,-0.5340576171875,2.63214111328125,-7.197069597069596,-82.76630036630036,15.143833943833943,1.2421875,1.666015625,-0.119140625,-1.373291015625,1.8768310546875,1.19781494140625,-38.084493284493284,35.53553113553114,25.639560439560437
39:40.233,0.41650390625,-0.14697265625,1.9951171875,-0.0762939453125,4.67681884765625,2.01416015625,-10.495726495726496,13.344566544566543,-35.08571428571428,0.08740234375,1.98876953125,-0.28369140625,-1.5411376953125,0.46539306640625,0.8544921875,-6.447374847374848,-80.96703296703296,14.843956043956043,1.23486328125,1.66943359375,-0.12744140625,-1.04522705078125,0.67901611328125,1.7852783203125,-36.88498168498168,35.38559218559219,25.78949938949939
39:41.122,0.43505859375,-0.1640625,1.9638671875,7.87353515625,6.46209716796875,2.23541259765625,-9.746031746031745,14.394139194139193,-37.03492063492063,0.0869140625,2.029296875,-0.25341796875,-3.021240234375,0.20599365234375,0.762939453125,-6.597313797313797,-81.41684981684982,14.993894993894994,1.2333984375,1.66015625,-0.1279296875,-0.8697509765625,0.66375732421875,1.62506103515625,-38.38437118437118,36.135286935286935,27.88864468864469
39:41.890,0.43505859375,-0.1640625,1.9638671875,-19.775390625,-20.91217041015625,-9.77325439453125,-11.995115995115995,14.544078144078144,-35.53553113553114,0.09814453125,2.02587890625,-0.2578125,-3.01361083984375,0.396728515625,0.57220458984375,-7.646886446886446,-80.66715506715506,15.443711843711844,1.23388671875,1.66650390625,-0.12109375,-0.7476806640625,0.84686279296875,1.800537109375,-38.53431013431013,35.23565323565323,25.639560439560437
39:42.670,0.52490234375,-0.0849609375,1.97998046875,-19.775390625,-20.91217041015625,-9.77325439453125,-11.995115995115995,14.544078144078144,-35.53553113553114,0.09814453125,2.02587890625,-0.2578125,-2.15911865234375,-4.3182373046875,0.14495849609375,-7.347008547008547,-81.41684981684982,17.093040293040293,1.236328125,1.66357421875,-0.123046875,-1.12152099609375,0.60272216796875,1.77764892578125,-37.48473748473749,35.53553113553114,28.03858363858364
39:43.499,0.40576171875,-0.19775390625,1.978515625,14.404296875,11.58905029296875,-5.9967041015625,-11.395360195360196,13.494505494505495,-36.135286935286935,0.0634765625,2.02783203125,-0.24951171875,-2.15911865234375,-4.3182373046875,0.14495849609375,-7.347008547008547,-81.41684981684982,17.093040293040293,1.236328125,1.66357421875,-0.123046875,-1.12152099609375,0.60272216796875,1.77764892578125,-38.084493284493284,33.73626373626374,25.93943833943834
39:44.279,0.3994140625,-0.0537109375,2.0517578125,6.591796875,17.02117919921875,1.3427734375,-10.495726495726496,13.644444444444444,-36.435164835164834,0.08251953125,2.03515625,-0.2529296875,-1.983642578125,-1.2054443359375,1.0986328125,-7.347008547008547,-82.61636141636141,15.743589743589743,1.2333984375,1.66259765625,-0.134765625,-1.44195556640625,1.89971923828125,2.00653076171875,-38.084493284493284,33.73626373626374,25.93943833943834
39:45.059,0.44482421875,-0.1220703125,1.98681640625,-4.72259521484375,-1.8463134765625,-2.2125244140625,-10.345787545787545,13.794383394383393,-34.78583638583638,0.0751953125,2.04931640625,-0.23291015625,-3.31878662109375,0.5645751953125,1.31988525390625,-6.597313797313797,-82.16654456654456,14.993894993894994,1.240234375,1.6669921875,-0.12890625,-1.0833740234375,0.92315673828125,1.9378662109375,-35.38559218559219,36.435164835164834,27.438827838827837
