time,hand_accelerometer_x,hand_accelerometer_y,hand_accelerometer_z,hand_gyroscope_x,hand_gyroscope_y,hand_gyroscope_z,hand_magnetometer_x,hand_magnetometer_y,hand_magnetometer_z,ankle_accelerometer_x,ankle_accelerometer_y,ankle_accelerometer_z,ankle_gyroscope_x,ankle_gyroscope_y,ankle_gyroscope_z,ankle_magnetometer_x,ankle_magnetometer_y,ankle_magnetometer_z,chest_accelerometer_x,chest_accelerometer_y,chest_accelerometer_z,chest_gyroscope_x,chest_gyroscope_y,chest_gyroscope_z,chest_magnetometer_x,chest_magnetometer_y,chest_magnetometer_z
07:59.569,0.9228515625,0.00732421875,1.8642578125,-2.35748291015625,1.13677978515625,-0.32806396484375,-4.947985347985348,3.1487179487179486,28.188522588522588,-1.908203125,-0.11767578125,0.43017578125,0.0,0.0,0.0,26.389255189255188,-63.12429792429792,40.33357753357753,-0.25048828125,2.033203125,0.07861328125,-0.87738037109375,0.732421875,1.434326171875,-82.76630036630036,27.438827838827837,-18.892307692307693
08:00.592,0.88720703125,-0.0087890625,1.85400390625,-1.31988525390625,1.6937255859375,0.41961669921875,-4.348229548229548,3.8984126984126983,26.539194139194137,-1.90966796875,-0.10498046875,0.43603515625,0.0,0.0,0.0,25.93943833943834,-59.825641025641026,41.683028083028084,-0.2509765625,2.0341796875,0.07763671875,-0.77056884765625,1.1749267578125,1.6021728515625,-81.86666666666666,28.338461538461537,-21.14139194139194
08:01.714,0.89306640625,-0.0185546875,1.84765625,-1.2664794921875,1.6632080078125,0.1678466796875,-4.648107448107448,2.0991452991452992,28.93821733821734,-1.908203125,-0.11669921875,0.3984375,0.0,0.0,0.0,26.83907203907204,-59.22588522588522,41.533089133089135,-0.251953125,2.03662109375,0.072265625,-0.79345703125,0.49591064453125,1.51824951171875,-82.46642246642246,26.83907203907204,-20.841514041514042
08:02.737,0.8779296875,-0.015625,1.83251953125,-1.1749267578125,0.640869140625,0.1220703125,-5.847619047619047,1.9492063492063492,26.689133089133087,-1.91552734375,-0.115234375,0.416015625,0.0,0.0,0.0,24.88986568986569,-60.87521367521367,39.583882783882785,-0.25048828125,2.04833984375,0.072265625,-1.18255615234375,0.83160400390625,1.6632080078125,-83.81587301587301,27.13894993894994,-21.741147741147742
08:03.712,0.8857421875,-0.02001953125,1.8369140625,-1.0528564453125,0.74005126953125,0.57220458984375,-7.646886446886446,4.348229548229548,27.738705738705736,-1.91552734375,-0.12255859375,0.396484375,0.0,0.0,0.0,26.689133089133087,-60.57533577533577,40.33357753357753,-0.26025390625,2.0302734375,0.072265625,-1.0833740234375,0.79345703125,1.495361328125,-82.46642246642246,26.539194139194137,-21.14139194139194
08:04.687,0.87841796875,-0.0166015625,1.8359375,-1.1749267578125,0.9613037109375,0.3509521484375,-6.747252747252747,2.848840048840049,27.88864468864469,-1.908203125,-0.12255859375,0.41162109375,0.0,0.0,0.0,26.83907203907204,-61.924786324786325,39.883760683760684,-0.25341796875,2.04296875,0.06982421875,-0.96893310546875,0.83160400390625,1.6632080078125,-83.81587301587301,28.488400488400487,-20.39169719169719
08:05.711,0.87451171875,-0.0263671875,1.85595703125,-1.15966796875,1.68609619140625,0.2899169921875,-5.547741147741148,1.1995115995115995,28.03858363858364,-1.91259765625,-0.1103515625,0.35986328125,0.0,0.0,0.0,26.389255189255188,-60.57533577533577,40.33357753357753,-0.25048828125,2.037109375,0.0634765625,-0.67138671875,1.24359130859375,1.434326171875,-81.86666666666666,26.83907203907204,-20.54163614163614
08:06.637,0.8701171875,-0.02294921875,1.8544921875,-1.15966796875,1.68609619140625,0.2899169921875,-5.997557997557998,0.29987789987789987,27.588766788766787,-1.91455078125,-0.11474609375,0.40478515625,0.0,0.0,0.0,26.689133089133087,-59.825641025641026,40.33357753357753,-0.25146484375,2.03515625,0.06103515625,-0.89263916015625,0.93841552734375,1.708984375,-83.21611721611721,27.288888888888888,-21.59120879120879
08:07.612,0.873046875,-0.021484375,1.85546875,-1.007080078125,0.9613037109375,0.0152587890625,-5.697680097680098,2.848840048840049,26.23931623931624,-1.9208984375,-0.115234375,0.4111328125,0.0,0.0,0.0,25.03980463980464,-61.17509157509157,39.433943833943836,-0.2314453125,2.03466796875,0.0888671875,-0.72479248046875,-2.15911865234375,1.33514404296875,-82.16654456654456,26.83907203907204,-21.59120879120879
08:08.588,0.85791015625,-0.021484375,1.853515625,-1.1444091796875,1.46484375,0.54931640625,-7.197069597069596,0.5997557997557997,27.13894993894994,-1.9189453125,-0.12158203125,0.42333984375,0.0,0.0,0.0,26.389255189255188,-60.87521367521367,40.033699633699634,-0.25537109375,2.03857421875,0.0693359375,-0.83160400390625,1.678466796875,0.457763671875,-83.06617826617827,27.738705738705736,-19.64200244200244
08:09.563,0.8740234375,-0.03125,1.86083984375,-1.62506103515625,1.19781494140625,-0.05340576171875,-7.197069597069596,0.5997557997557997,27.13894993894994,-1.91357421875,-0.115234375,0.4091796875,0.0,0.0,0.0,24.739926739926737,-61.47496947496947,39.433943833943836,-0.25048828125,2.03759765625,0.0830078125,-1.1444091796875,0.74005126953125,1.25885009765625,-83.81587301587301,28.188522588522588,-20.69157509157509
08:10.586,0.86767578125,-0.0185546875,1.849609375,-1.1444091796875,1.15966796875,0.091552734375,-7.347008547008547,2.548962148962149,27.738705738705736,-1.91748046875,-0.10546875,0.40087890625,0.0,0.0,0.0,27.438827838827837,-60.57533577533577,38.98412698412698,-0.244140625,2.03515625,0.08203125,-1.02996826171875,1.0833740234375,1.708984375,-83.81587301587301,26.689133089133087,-20.39169719169719
08:11.707,0.88427734375,-0.01513671875,1.84912109375,-1.35040283203125,1.39617919921875,0.2288818359375,-5.997557997557998,3.1487179487179486,25.489621489621488,-1.9140625,-0.12353515625,0.3994140625,0.0,0.0,0.0,27.288888888888888,-59.67570207570208,39.433943833943836,-0.2412109375,2.03759765625,0.07470703125,-0.762939453125,1.09100341796875,1.65557861328125,-83.21611721611721,26.83907203907204,-21.59120879120879
08:12.731,0.87255859375,-0.01416015625,1.8486328125,-1.24359130859375,0.9918212890625,-0.03814697265625,-7.946764346764346,2.249084249084249,27.738705738705736,-1.912109375,-0.1162109375,0.40771484375,0.0,0.0,0.0,27.438827838827837,-60.275457875457874,40.033699633699634,-0.251953125,2.0322265625,0.08837890625,-1.0528564453125,0.8087158203125,1.5869140625,-82.31648351648352,27.438827838827837,-20.99145299145299
08:13.853,0.88330078125,-0.013671875,1.8544921875,-1.1138916015625,0.5950927734375,-0.11444091796875,-5.997557997557998,3.4485958485958483,27.13894993894994,-1.90869140625,-0.11279296875,0.4013671875,0.0,0.0,0.0,26.83907203907204,-62.224664224664224,40.93333333333333,-0.24267578125,2.0380859375,0.0830078125,-0.9613037109375,0.58746337890625,1.708984375,-83.21611721611721,25.78949938949939,-21.89108669108669
08:14.974,0.8720703125,-0.02392578125,1.84228515625,-1.31988525390625,0.8697509765625,0.03814697265625,-6.747252747252747,3.4485958485958483,26.539194139194137,-1.9228515625,-0.119140625,0.43212890625,0.0,0.0,0.0,25.93943833943834,-60.275457875457874,41.38315018315018,-0.24560546875,2.03759765625,0.0712890625,-1.0223388671875,0.823974609375,1.64031982421875,-82.31648351648352,27.738705738705736,-20.69157509157509
08:16.144,0.884765625,-0.03076171875,1.84228515625,-1.2664794921875,0.58746337890625,-0.00762939453125,-5.247863247863248,2.998778998778999,26.689133089133087,-1.91552734375,-0.1103515625,0.40576171875,0.0,0.0,0.0,24.589987789987788,-60.87521367521367,39.583882783882785,-0.248046875,2.037109375,0.06884765625,-1.1138916015625,0.79345703125,1.80816650390625,-84.11575091575091,27.438827838827837,-22.04102564102564
08:17.558,0.876953125,-0.02197265625,1.85595703125,-1.45721435546875,1.15203857421875,0.06866455078125,-4.798046398046398,1.1995115995115995,29.687912087912085,-1.90966796875,-0.10546875,0.43896484375,0.0,0.0,0.0,25.78949938949939,-58.92600732600732,39.433943833943836,-0.24755859375,2.0361328125,0.0751953125,-0.78582763671875,0.91552734375,1.77001953125,-81.26691086691086,28.93821733821734,-22.04102564102564
08:18.581,0.8837890625,-0.0224609375,1.84326171875,-1.13677978515625,1.53350830078125,0.396728515625,-7.496947496947497,3.4485958485958483,28.188522588522588,-1.91845703125,-0.12744140625,0.4111328125,0.0,0.0,0.0,26.539194139194137,-59.22588522588522,39.433943833943836,-0.24267578125,2.0322265625,0.07470703125,-0.9613037109375,0.69427490234375,2.1820068359375,-83.36605616605617,26.389255189255188,-20.39169719169719
08:19.556,0.8779296875,-0.02294921875,1.8603515625,-1.6632080078125,2.7923583984375,0.152587890625,-7.496947496947497,3.4485958485958483,28.188522588522588,-1.90966796875,-0.13671875,0.38623046875,0.0,0.0,0.0,25.18974358974359,-60.57533577533577,40.33357753357753,-0.2412109375,2.0400390625,0.078125,-1.1138916015625,0.87738037109375,1.6326904296875,-83.81587301587301,25.639560439560437,-20.69157509157509
08:20.775,0.87255859375,-0.033203125,1.85205078125,-1.3427734375,0.92315673828125,-0.091552734375,-4.947985347985348,2.399023199023199,26.83907203907204,-1.89453125,-0.1103515625,0.4306640625,0.0,0.0,0.0,27.288888888888888,-61.17509157509157,41.23321123321123,-0.25244140625,2.0341796875,0.06298828125,-1.04522705078125,0.9613037109375,1.48773193359375,-83.21611721611721,27.588766788766787,-21.89108669108669
08:21.750,0.87255859375,-0.033203125,1.85205078125,-1.19781494140625,0.7476806640625,-0.0152587890625,-6.597313797313797,2.249084249084249,26.98901098901099,-1.9228515625,-0.11474609375,0.3955078125,0.0,0.0,0.0,27.588766788766787,-61.924786324786325,40.18363858363858,-0.24462890625,2.0361328125,0.07373046875,-1.09100341796875,0.77056884765625,1.44195556640625,-83.81587301587301,27.738705738705736,-20.99145299145299
08:22.969,0.884765625,-0.0205078125,1.84765625,-1.2054443359375,1.27410888671875,0.45013427734375,-4.648107448107448,3.1487179487179486,28.188522588522588,-1.92431640625,-0.10888671875,0.439453125,0.0,0.0,0.0,25.93943833943834,-59.825641025641026,41.38315018315018,-0.24169921875,2.0341796875,0.08251953125,-1.220703125,0.86212158203125,1.65557861328125,-83.21611721611721,27.288888888888888,-20.09181929181929
08:23.944,0.87255859375,-0.02880859375,1.85400390625,-1.30462646484375,1.251220703125,0.03814697265625,-5.997557997557998,2.399023199023199,26.539194139194137,-1.9052734375,-0.11279296875,0.4228515625,0.0,0.0,0.0,26.539194139194137,-59.975579975579976,40.93333333333333,-0.2412109375,2.041015625,0.0751953125,-1.02996826171875,0.6103515625,1.94549560546875,-83.36605616605617,25.93943833943834,-19.941880341880342
08:24.968,0.85595703125,-0.013671875,1.8564453125,-1.220703125,1.01470947265625,0.0762939453125,-5.697680097680098,2.399023199023199,28.93821733821734,-1.9169921875,-0.111328125,0.41552734375,0.0,0.0,0.0,26.389255189255188,-59.825641025641026,41.38315018315018,-0.24267578125,2.03515625,0.060546875,-0.93841552734375,0.9307861328125,1.68609619140625,-82.91623931623931,26.83907203907204,-21.59120879120879
08:25.894,0.865234375,-0.02197265625,1.85498046875,-1.10626220703125,0.81634521484375,0.030517578125,-4.498168498168498,1.9492063492063492,26.689133089133087,-1.92236328125,-0.13525390625,0.41455078125,0.0,0.0,0.0,25.78949938949939,-60.72527472527472,40.18363858363858,-0.24853515625,2.0390625,0.07470703125,-0.89263916015625,0.732421875,1.7242431640625,-84.26568986568986,26.539194139194137,-19.791941391941393
08:27.162,0.90283203125,-0.02392578125,1.8544921875,-1.0833740234375,1.1749267578125,0.16021728515625,-6.297435897435897,1.4993894993894994,27.738705738705736,-1.92041015625,-0.1181640625,0.42626953125,0.0,0.0,0.0,25.639560439560437,-59.52576312576312,41.08327228327228,-0.24560546875,2.04052734375,0.07373046875,-0.75531005859375,1.2969970703125,1.6021728515625,-83.36605616605617,26.389255189255188,-20.69157509157509
08:28.478,0.87744140625,-0.01806640625,1.853515625,-1.19781494140625,0.90789794921875,0.35858154296875,-5.397802197802197,1.0495726495726496,26.23931623931624,-1.92822265625,-0.08349609375,0.439453125,0.0,0.0,0.0,26.689133089133087,-60.57533577533577,38.53431013431013,-0.2490234375,2.03466796875,0.09033203125,-0.99945068359375,0.91552734375,1.07574462890625,-82.31648351648352,28.188522588522588,-22.04102564102564
08:29.453,0.8740234375,-0.0224609375,1.86083984375,-1.10626220703125,1.97601318359375,0.3814697265625,-7.946764346764346,2.249084249084249,28.03858363858364,-1.92822265625,-0.08349609375,0.439453125,0.0,0.0,0.0,28.188522588522588,-59.07594627594627,39.583882783882785,-0.2353515625,2.0341796875,0.07763671875,-1.068115234375,0.70953369140625,1.5411376953125,-84.86544566544566,26.389255189255188,-22.04102564102564
08:30.525,0.8447265625,-0.04150390625,1.85302734375,-1.24359130859375,1.0223388671875,0.61798095703125,-7.496947496947497,4.947985347985348,26.83907203907204,-1.9091796875,-0.08984375,0.42578125,0.0,0.0,0.0,25.93943833943834,-59.825641025641026,41.08327228327228,-0.23828125,2.0361328125,0.076171875,-0.96893310546875,0.67138671875,1.4190673828125,-83.66593406593407,28.03858363858364,-21.59120879120879
08:31.403,0.85791015625,-0.0166015625,1.845703125,-1.25885009765625,0.91552734375,-0.29754638671875,-7.197069597069596,2.0991452991452992,27.88864468864469,-1.9091796875,-0.08984375,0.42578125,0.0,0.0,0.0,27.13894993894994,-59.52576312576312,40.033699633699634,-0.23828125,2.0361328125,0.076171875,-0.80108642578125,0.87738037109375,1.16729736328125,-83.21611721611721,26.83907203907204,-22.64078144078144
08:32.329,0.86328125,-0.02978515625,1.84716796875,-0.86212158203125,1.96075439453125,1.2969970703125,-6.747252747252747,5.997557997557998,22.49084249084249,-1.91259765625,-0.11083984375,0.4228515625,0.0,0.0,0.0,26.83907203907204,-59.975579975579976,41.98290598290598,-0.2451171875,2.04833984375,0.0732421875,-0.80108642578125,0.87738037109375,1.16729736328125,-82.76630036630036,27.438827838827837,-21.741147741147742
08:33.402,0.859375,-0.017578125,1.86669921875,-0.92315673828125,1.62506103515625,0.54168701171875,-5.997557997557998,2.848840048840049,28.488400488400487,-1.91650390625,-0.1142578125,0.42822265625,0.0,0.0,0.0,26.83907203907204,-60.72527472527472,40.18363858363858,-0.23681640625,2.04150390625,0.087890625,-1.04522705078125,0.8087158203125,2.1820068359375,-82.91623931623931,26.83907203907204,-21.59120879120879
08:34.620,0.861328125,-0.02587890625,1.86181640625,-1.495361328125,1.50299072265625,-0.1373291015625,-6.297435897435897,2.249084249084249,29.687912087912085,-1.9130859375,-0.10888671875,0.42919921875,0.0,0.0,0.0,26.23931623931624,-60.425396825396824,38.68424908424908,-0.2412109375,2.0419921875,0.06005859375,-1.2054443359375,0.78582763671875,1.2969970703125,-83.36605616605617,27.13894993894994,-22.04102564102564
08:35.644,0.84423828125,-0.03466796875,1.859375,-0.86212158203125,2.5787353515625,0.8087158203125,-4.348229548229548,4.947985347985348,24.44004884004884,-1.9296875,-0.107421875,0.431640625,0.0,0.0,0.0,25.18974358974359,-61.624908424908426,38.98412698412698,-0.24072265625,2.03662109375,0.07421875,-1.21307373046875,1.09100341796875,1.27410888671875,-82.91623931623931,27.288888888888888,-21.59120879120879
08:36.814,0.83154296875,-0.04345703125,1.8681640625,-1.2054443359375,1.33514404296875,0.29754638671875,-4.947985347985348,2.848840048840049,28.93821733821734,-1.9228515625,-0.10205078125,0.4384765625,0.0,0.0,0.0,25.78949938949939,-59.975579975579976,40.93333333333333,-0.244140625,2.03369140625,0.0810546875,-1.04522705078125,0.6103515625,1.77001953125,-83.21611721611721,26.23931623931624,-22.19096459096459
08:37.740,0.83154296875,-0.04345703125,1.8681640625,-1.373291015625,1.77001953125,0.2593994140625,-6.297435897435897,3.598534798534798,30.137728937728937,-1.896484375,-0.0947265625,0.44482421875,0.0,0.0,0.0,26.389255189255188,-59.07594627594627,41.08327228327228,-0.2392578125,2.033203125,0.08056640625,-0.90789794921875,0.762939453125,1.89208984375,-82.76630036630036,28.488400488400487,-21.741147741147742
08:38.910,0.80322265625,-0.03173828125,1.87890625,-1.44195556640625,0.9918212890625,-0.091552734375,-6.597313797313797,2.998778998778999,28.788278388278385,-1.912109375,-0.07763671875,0.46728515625,0.0,0.0,0.0,25.489621489621488,-59.975579975579976,41.533089133089135,-0.2431640625,2.033203125,0.080078125,-0.98419189453125,0.91552734375,1.42669677734375,-83.36605616605617,26.389255189255188,-21.44126984126984
08:39.983,0.7998046875,-0.03662109375,1.87255859375,-1.31988525390625,1.3885498046875,-0.18310546875,-6.447374847374848,0.5997557997557997,28.93821733821734,-1.9111328125,-0.060546875,0.4462890625,0.0,0.0,0.0,25.639560439560437,-59.825641025641026,40.33357753357753,-0.2529296875,2.0322265625,0.09228515625,-0.9002685546875,0.23651123046875,1.6632080078125,-83.36605616605617,27.438827838827837,-20.39169719169719
08:41.250,0.822265625,-0.04833984375,1.88232421875,-1.30462646484375,1.39617919921875,-0.00762939453125,-5.697680097680098,3.1487179487179486,29.537973137973136,-1.9013671875,-0.0966796875,0.46826171875,0.0,0.0,0.0,25.489621489621488,-60.72527472527472,41.23321123321123,-0.2392578125,2.0380859375,0.0830078125,-0.80108642578125,0.87738037109375,1.82342529296875,-82.46642246642246,26.539194139194137,-20.09181929181929
08:42.225,0.8076171875,-0.04150390625,1.8818359375,-1.18255615234375,0.9918212890625,0.00762939453125,-7.197069597069596,2.848840048840049,28.93821733821734,-1.9169921875,-0.08154296875,0.42919921875,0.0,0.0,0.0,26.539194139194137,-60.72527472527472,40.48351648351648,-0.240234375,2.04296875,0.07421875,-1.27410888671875,0.90789794921875,1.5869140625,-82.46642246642246,26.539194139194137,-20.09181929181929
08:43.151,0.8251953125,-0.04443359375,1.87451171875,-1.12152099609375,1.434326171875,0.396728515625,-7.197069597069596,2.0991452991452992,30.587545787545785,-1.9013671875,-0.06982421875,0.43408203125,0.0,0.0,0.0,24.739926739926737,-60.72527472527472,41.23321123321123,-0.23681640625,2.0400390625,0.076171875,-0.7171630859375,1.2664794921875,1.8463134765625,-82.91623931623931,25.78949938949939,-21.14139194139194
08:44.321,0.8173828125,-0.05419921875,1.87158203125,-1.31988525390625,1.18255615234375,-0.1983642578125,-7.646886446886446,2.249084249084249,28.338461538461537,-1.916015625,-0.0908203125,0.4560546875,0.0,0.0,0.0,26.539194139194137,-61.17509157509157,41.533089133089135,-0.23291015625,2.04248046875,0.07958984375,-1.16729736328125,0.86212158203125,1.4801025390625,-84.56556776556776,25.93943833943834,-19.941880341880342
08:45.345,0.8232421875,-0.05419921875,1.86669921875,-1.15203857421875,0.6866455078125,0.28228759765625,-7.646886446886446,2.998778998778999,29.388034188034187,-1.890625,-0.087890625,0.41943359375,0.0,0.0,0.0,25.639560439560437,-60.275457875457874,42.13284493284493,-0.2333984375,2.03759765625,0.08056640625,-1.06048583984375,0.87738037109375,1.4801025390625,-82.76630036630036,27.13894993894994,-20.99145299145299
08:46.320,0.8056640625,-0.05419921875,1.8916015625,-1.373291015625,0.48828125,0.396728515625,-5.997557997557998,2.0991452991452992,30.587545787545785,-1.91552734375,-0.09716796875,0.45166015625,0.0,0.0,0.0,25.18974358974359,-60.87521367521367,40.33357753357753,-0.21826171875,2.044921875,0.07861328125,-0.9918212890625,0.75531005859375,2.14385986328125,-82.01660561660562,26.389255189255188,-22.04102564102564
08:47.344,0.822265625,-0.0478515625,1.88916015625,-1.67083740234375,2.20489501953125,0.08392333984375,-6.747252747252747,3.4485958485958483,30.287667887667887,-1.9169921875,-0.109375,0.431640625,0.0,0.0,0.0,25.18974358974359,-60.57533577533577,39.583882783882785,-0.22900390625,2.0322265625,0.0927734375,-0.89263916015625,1.190185546875,2.44140625,-83.21611721611721,26.83907203907204,-22.19096459096459
08:48.465,0.81396484375,-0.04736328125,1.880859375,-1.007080078125,0.37384033203125,0.00762939453125,-5.697680097680098,3.1487179487179486,29.987789987789988,-1.90966796875,-0.1015625,0.44873046875,0.0,0.0,0.0,25.489621489621488,-59.67570207570208,41.98290598290598,-0.2314453125,2.041015625,0.0791015625,-0.99945068359375,0.42724609375,1.91497802734375,-81.86666666666666,26.23931623931624,-20.09181929181929
08:49.733,0.79931640625,-0.04443359375,1.88232421875,-1.2054443359375,0.42724609375,0.213623046875,-6.747252747252747,3.4485958485958483,29.537973137973136,-1.916015625,-0.09326171875,0.40576171875,0.0,0.0,0.0,24.88986568986569,-60.275457875457874,40.63345543345543,-0.23291015625,2.03662109375,0.06982421875,-0.9002685546875,0.72479248046875,1.7852783203125,-84.56556776556776,26.689133089133087,-21.44126984126984
08:50.854,0.80810546875,-0.04248046875,1.8857421875,-1.12152099609375,0.8544921875,0.06866455078125,-6.597313797313797,4.348229548229548,28.338461538461537,-1.9111328125,-0.1015625,0.4267578125,0.0,0.0,0.0,24.739926739926737,-59.975579975579976,39.883760683760684,-0.22998046875,2.03515625,0.0810546875,-1.0986328125,0.74005126953125,1.15203857421875,-82.91623931623931,26.83907203907204,-21.89108669108669
08:51.926,0.791015625,-0.044921875,1.88671875,-2.0294189453125,3.30352783203125,1.09100341796875,-6.447374847374848,4.1982905982905985,29.238095238095237,-1.91259765625,-0.1083984375,0.43212890625,0.0,0.0,0.0,26.689133089133087,-58.77606837606837,42.13284493284493,-0.23681640625,2.03515625,0.0693359375,-0.732421875,0.5035400390625,2.37274169921875,-84.26568986568986,28.03858363858364,-20.09181929181929
08:52.999,0.791015625,-0.029296875,1.8447265625,-0.05340576171875,-1.31988525390625,-0.19073486328125,-5.397802197802197,2.399023199023199,29.537973137973136,-1.91943359375,-0.13623046875,0.421875,0.0,0.0,0.0,25.489621489621488,-59.975579975579976,39.883760683760684,-0.24755859375,2.044921875,0.0869140625,-0.35858154296875,2.70843505859375,0.99945068359375,-83.36605616605617,27.13894993894994,-21.44126984126984
08:54.071,0.9013671875,-0.05517578125,1.84228515625,-0.23651123046875,0.25177001953125,-0.09918212890625,-7.197069597069596,2.848840048840049,27.13894993894994,-1.876953125,-0.18701171875,0.4208984375,0.0,0.0,0.0,26.389255189255188,-61.32503052503052,40.033699633699634,-0.23193359375,2.0341796875,0.07861328125,-0.84686279296875,0.1068115234375,3.18145751953125,-82.31648351648352,28.188522588522588,-20.39169719169719
08:55.193,0.828125,-0.04736328125,1.86279296875,-1.82342529296875,0.762939453125,-0.26702880859375,-7.347008547008547,2.249084249084249,29.687912087912085,-1.92138671875,-0.13037109375,0.36376953125,0.0,0.0,0.0,26.539194139194137,-60.72527472527472,40.48351648351648,-0.2333984375,2.04296875,0.0791015625,-1.07574462890625,0.67138671875,1.85394287109375,-83.81587301587301,27.438827838827837,-20.99145299145299
08:56.216,0.82861328125,-0.04931640625,1.873046875,-1.2054443359375,1.46484375,0.29754638671875,-6.897191697191697,2.548962148962149,28.788278388278385,-1.9169921875,-0.13037109375,0.37841796875,0.0,0.0,0.0,24.29010989010989,-61.47496947496947,40.93333333333333,-0.23291015625,2.04150390625,0.0712890625,-1.13677978515625,0.80108642578125,2.03704833984375,-83.81587301587301,27.438827838827837,-20.99145299145299
08:57.143,0.82958984375,-0.04736328125,1.8720703125,-1.2054443359375,1.31988525390625,0.0,-6.447374847374848,2.399023199023199,28.93821733821734,-1.91796875,-0.1240234375,0.39306640625,0.0,0.0,0.0,25.639560439560437,-60.275457875457874,40.33357753357753,-0.2275390625,2.03857421875,0.078125,-0.9002685546875,0.8697509765625,1.617431640625,-83.36605616605617,26.389255189255188,-22.04102564102564
08:58.118,0.82373046875,-0.04638671875,1.869140625,-0.99945068359375,0.7781982421875,-0.05340576171875,-5.697680097680098,3.1487179487179486,28.93821733821734,-1.9296875,-0.1357421875,0.3857421875,0.0,0.0,0.0,26.689133089133087,-61.32503052503052,39.28400488400488,-0.2275390625,2.04736328125,0.07275390625,-1.0528564453125,0.49591064453125,1.13677978515625,-83.96581196581197,28.03858363858364,-21.59120879120879
08:59.385,0.833984375,-0.0419921875,1.8759765625,-0.70953369140625,0.244140625,0.28228759765625,-7.197069597069596,4.1982905982905985,30.287667887667887,-1.94873046875,-0.10986328125,0.380859375,0.0,0.0,0.0,26.23931623931624,-61.924786324786325,40.18363858363858,-0.240234375,2.044921875,0.07568359375,-1.13677978515625,0.91552734375,1.60980224609375,-83.06617826617827,27.13894993894994,-20.99145299145299
09:00.555,0.84619140625,-0.04638671875,1.87060546875,-1.25885009765625,1.56402587890625,0.3814697265625,-6.297435897435897,2.548962148962149,30.437606837606836,-1.93115234375,-0.1279296875,0.35693359375,0.0,0.0,0.0,24.88986568986569,-61.32503052503052,40.033699633699634,-0.2314453125,2.0400390625,0.0810546875,-0.89263916015625,0.7476806640625,1.31988525390625,-82.76630036630036,27.13894993894994,-21.741147741147742
09:01.725,0.83935546875,-0.04052734375,1.87353515625,-1.44195556640625,1.617431640625,0.18310546875,-5.697680097680098,2.399023199023199,30.287667887667887,-1.92236328125,-0.12939453125,0.34716796875,0.0,0.0,0.0,24.739926739926737,-59.975579975579976,39.883760683760684,-0.2431640625,2.037109375,0.07275390625,-1.19781494140625,1.38092041015625,1.86920166015625,-83.81587301587301,25.93943833943834,-20.99145299145299
09:02.651,0.83740234375,-0.05322265625,1.86328125,-1.44195556640625,1.617431640625,0.18310546875,-6.447374847374848,3.1487179487179486,29.238095238095237,-1.91650390625,-0.1083984375,0.34228515625,0.0,0.0,0.0,27.738705738705736,-60.275457875457874,39.28400488400488,-0.22509765625,2.0380859375,0.07421875,-1.02996826171875,0.732421875,1.77764892578125,-83.66593406593407,26.539194139194137,-22.19096459096459
09:03.675,0.828125,-0.04443359375,1.86669921875,-1.36566162109375,2.2430419921875,0.3204345703125,-6.447374847374848,3.1487179487179486,30.887423687423688,-1.93603515625,-0.14111328125,0.3583984375,0.0,0.0,0.0,26.83907203907204,-59.67570207570208,40.18363858363858,-0.21923828125,2.0380859375,0.07666015625,-0.66375732421875,0.7171630859375,1.67083740234375,-85.01538461538462,26.539194139194137,-22.19096459096459
09:04.944,0.82421875,-0.05517578125,1.86865234375,-0.80108642578125,0.579833984375,0.22125244140625,-6.747252747252747,3.4485958485958483,28.93821733821734,-1.935546875,-0.126953125,0.3125,0.0,0.0,0.0,25.489621489621488,-61.17509157509157,37.634676434676436,-0.23095703125,2.037109375,0.07861328125,-1.068115234375,0.60272216796875,1.3275146484375,-84.11575091575091,26.689133089133087,-22.04102564102564
09:06.552,0.81982421875,-0.04248046875,1.87890625,-1.50299072265625,0.87738037109375,-0.213623046875,-6.597313797313797,3.2986568986568985,30.137728937728937,-1.90869140625,-0.12744140625,0.36376953125,0.0,0.0,0.0,25.639560439560437,-62.37460317460317,38.53431013431013,-0.23291015625,2.04345703125,0.07861328125,-0.9002685546875,0.70953369140625,1.83868408203125,-83.06617826617827,28.488400488400487,-22.34090354090354
09:07.722,0.79052734375,-0.044921875,1.8876953125,-1.18255615234375,0.67138671875,0.4119873046875,-5.697680097680098,4.1982905982905985,29.238095238095237,-1.93359375,-0.138671875,0.39111328125,0.0,0.0,0.0,24.29010989010989,-61.17509157509157,40.48351648351648,-0.234375,2.04345703125,0.07958984375,-1.0833740234375,0.69427490234375,1.71661376953125,-85.76507936507936,27.288888888888888,-21.14139194139194
09:09.087,0.802734375,-0.05126953125,1.87841796875,-0.90789794921875,0.6561279296875,0.12969970703125,-5.847619047619047,6.147496947496947,25.93943833943834,-1.9208984375,-0.13134765625,0.3271484375,0.0,0.0,0.0,25.489621489621488,-60.425396825396824,40.18363858363858,-0.22265625,2.0419921875,0.06494140625,-1.0528564453125,0.8392333984375,1.62506103515625,-83.21611721611721,26.83907203907204,-22.19096459096459
09:10.354,0.80126953125,-0.0517578125,1.89697265625,-1.42669677734375,1.2359619140625,0.1068115234375,-6.597313797313797,2.249084249084249,30.437606837606836,-1.92919921875,-0.1376953125,0.33642578125,0.0,0.0,0.0,25.639560439560437,-60.57533577533577,38.98412698412698,-0.22412109375,2.03955078125,0.0849609375,-1.0528564453125,0.8392333984375,1.62506103515625,-83.96581196581197,27.288888888888888,-20.54163614163614
09:11.232,0.7841796875,-0.05029296875,1.89306640625,-0.762939453125,1.56402587890625,0.0152587890625,-8.996336996336996,4.348229548229548,26.98901098901099,-1.9267578125,-0.12353515625,0.314453125,0.0,0.0,0.0,25.639560439560437,-60.57533577533577,38.98412698412698,-0.22509765625,2.04541015625,0.087890625,-1.31988525390625,0.9307861328125,1.82342529296875,-82.91623931623931,25.78949938949939,-21.14139194139194
09:12.158,0.8134765625,-0.04150390625,1.86865234375,-0.95367431640625,1.12152099609375,0.19073486328125,-7.347008547008547,3.2986568986568985,29.687912087912085,-1.91845703125,-0.12890625,0.3037109375,0.0,0.0,0.0,26.389255189255188,-60.57533577533577,39.583882783882785,-0.22998046875,2.04736328125,0.0849609375,-0.946044921875,1.068115234375,1.8768310546875,-82.91623931623931,25.78949938949939,-21.14139194139194
09:13.084,0.83203125,-0.03662109375,1.85986328125,-1.0833740234375,-1.21307373046875,-0.2593994140625,-6.447374847374848,4.947985347985348,24.739926739926737,-1.9482421875,-0.1201171875,0.271484375,0.0,0.0,0.0,25.489621489621488,-61.17509157509157,38.38437118437118,-0.22021484375,2.0361328125,0.0771484375,-1.4190673828125,0.06103515625,2.22015380859375,-83.06617826617827,27.438827838827837,-21.741147741147742
09:14.254,0.904296875,-0.0390625,1.859375,-1.83868408203125,-1.6632080078125,-2.716064453125,-7.946764346764346,2.548962148962149,29.388034188034187,-1.833984375,-0.13134765625,0.55712890625,0.0,0.0,0.0,25.93943833943834,-59.825641025641026,37.18485958485958,-0.24462890625,2.041015625,0.0830078125,-0.79345703125,0.701904296875,1.46484375,-84.56556776556776,25.639560439560437,-21.741147741147742
09:15.377,0.87841796875,-0.01953125,1.845703125,-0.90789794921875,2.227783203125,0.8544921875,-5.247863247863248,2.548962148962149,23.24053724053724,-1.845703125,-0.11767578125,0.51513671875,0.0,0.0,0.0,26.23931623931624,-61.17509157509157,43.33235653235653,-0.2294921875,2.03759765625,0.0771484375,-1.12152099609375,0.4119873046875,1.678466796875,-82.46642246642246,28.338461538461537,-20.841514041514042
09:16.692,0.84375,-0.03271484375,1.869140625,-1.13677978515625,0.67138671875,-0.34332275390625,-5.397802197802197,4.498168498168498,25.18974358974359,-1.89501953125,-0.10595703125,0.50732421875,0.0,0.0,0.0,25.639560439560437,-60.87521367521367,42.43272283272283,-0.2265625,2.03466796875,0.078125,-0.7171630859375,0.64849853515625,1.85394287109375,-84.26568986568986,26.539194139194137,-21.59120879120879
09:17.862,0.841796875,-0.02783203125,1.8671875,-1.47247314453125,1.220703125,-0.08392333984375,-7.347008547008547,2.998778998778999,29.088156288156288,-1.89306640625,-0.09130859375,0.5283203125,0.0,0.0,0.0,26.389255189255188,-59.07594627594627,43.18241758241758,-0.2138671875,2.04833984375,0.08642578125,-0.7476806640625,1.03759765625,2.09808349609375,-85.01538461538462,26.83907203907204,-23.24053724053724
09:18.983,0.82568359375,-0.03173828125,1.86181640625,-1.373291015625,1.44195556640625,-0.11444091796875,-5.547741147741148,2.998778998778999,28.788278388278385,-1.88427734375,-0.13037109375,0.494140625,0.0,0.0,0.0,25.639560439560437,-59.07594627594627,42.43272283272283,-0.2119140625,2.04296875,0.07861328125,-1.129150390625,0.8544921875,1.8310546875,-83.36605616605617,25.93943833943834,-20.39169719169719
09:20.202,0.8330078125,-0.03857421875,1.88232421875,-1.36566162109375,1.1444091796875,0.23651123046875,-7.197069597069596,2.0991452991452992,28.93821733821734,-1.87890625,-0.11474609375,0.50830078125,0.0,0.0,0.0,25.93943833943834,-60.57533577533577,42.73260073260073,-0.21337890625,2.04150390625,0.07666015625,-0.91552734375,0.1983642578125,1.52587890625,-84.11575091575091,25.18974358974359,-20.99145299145299
09:21.372,0.8505859375,-0.013671875,1.8740234375,-1.36566162109375,0.87738037109375,-1.64794921875,-6.447374847374848,4.1982905982905985,28.488400488400487,-1.91845703125,-0.1689453125,0.52294921875,0.0,0.0,0.0,27.438827838827837,-62.82442002442002,43.18241758241758,-0.23583984375,2.0400390625,0.07568359375,-0.3662109375,0.9613037109375,2.0904541015625,-83.21611721611721,26.539194139194137,-20.841514041514042
09:22.395,0.99609375,-0.048828125,1.80712890625,-1.10626220703125,0.84686279296875,0.457763671875,-6.747252747252747,3.1487179487179486,29.238095238095237,-1.9091796875,-0.08203125,0.43798828125,0.0,0.0,0.0,27.438827838827837,-60.57533577533577,43.18241758241758,-0.1865234375,2.04931640625,0.09228515625,-0.7476806640625,-3.143310546875,1.65557861328125,-83.06617826617827,27.13894993894994,-21.741147741147742
09:23.273,0.9365234375,-0.017578125,1.8349609375,-0.34332275390625,1.5716552734375,1.6326904296875,-7.946764346764346,0.4498168498168498,29.088156288156288,-1.93505859375,-0.14208984375,0.505859375,0.0,0.0,0.0,27.438827838827837,-60.57533577533577,43.18241758241758,-0.23583984375,2.03857421875,0.09619140625,-0.7476806640625,-3.143310546875,1.65557861328125,-83.81587301587301,27.438827838827837,-19.34212454212454
09:24.199,0.8994140625,-0.01171875,1.8330078125,-1.28936767578125,1.068115234375,-0.335693359375,-8.396581196581197,2.548962148962149,28.788278388278385,-1.93310546875,-0.15234375,0.52783203125,0.0,0.0,0.0,24.589987789987788,-60.57533577533577,42.13284493284493,-0.2548828125,2.0458984375,0.08251953125,-2.044677734375,2.0294189453125,-1.62506103515625,-85.46520146520146,27.588766788766787,-20.54163614163614
09:25.175,0.892578125,-0.0185546875,1.841796875,-1.190185546875,4.1046142578125,1.40380859375,-7.197069597069596,1.3494505494505493,29.238095238095237,-1.98486328125,-0.06787109375,0.43017578125,0.0,0.0,0.0,26.23931623931624,-60.425396825396824,40.93333333333333,-0.2529296875,2.0400390625,0.0869140625,-1.31988525390625,3.48663330078125,4.14276123046875,-86.36483516483516,27.738705738705736,-20.69157509157509
09:26.247,0.86083984375,-0.03369140625,1.8232421875,-2.8839111328125,2.0294189453125,-0.41961669921875,-7.347008547008547,2.998778998778999,29.687912087912085,-1.94189453125,-0.13818359375,0.43701171875,0.0,0.0,0.0,24.739926739926737,-59.22588522588522,38.68424908424908,-0.24365234375,2.0341796875,0.0703125,-1.1749267578125,3.54766845703125,0.78582763671875,-84.7155067155067,28.03858363858364,-20.09181929181929
09:27.271,0.8154296875,-0.03271484375,1.8798828125,-1.06048583984375,0.32806396484375,-0.244140625,-5.847619047619047,2.998778998778999,29.088156288156288,-1.93505859375,-0.06591796875,0.3779296875,0.0,0.0,0.0,23.99023199023199,-59.975579975579976,40.18363858363858,-0.2314453125,2.037109375,0.06884765625,-1.1749267578125,3.54766845703125,0.78582763671875,-84.7155067155067,28.03858363858364,-20.09181929181929
09:28.197,0.876953125,-0.037109375,1.85009765625,-0.8392333984375,3.73077392578125,0.43487548828125,-7.347008547008547,4.348229548229548,28.788278388278385,-1.93017578125,-0.06591796875,0.35595703125,0.0,0.0,0.0,25.93943833943834,-60.275457875457874,41.38315018315018,-0.21826171875,2.03564453125,0.0703125,-1.19781494140625,1.1749267578125,1.6326904296875,-83.96581196581197,25.03980463980464,-23.24053724053724
09:29.220,0.818359375,-0.02587890625,1.86669921875,-1.1138916015625,3.204345703125,0.1678466796875,-6.897191697191697,4.048351648351648,28.03858363858364,-1.93701171875,-0.0693359375,0.365234375,0.0,0.0,0.0,26.23931623931624,-61.17509157509157,38.68424908424908,-0.21728515625,2.0400390625,0.07666015625,-1.07574462890625,0.732421875,1.5106201171875,-84.11575091575091,27.438827838827837,-22.34090354090354
09:30.244,0.85302734375,-0.0361328125,1.87744140625,-1.2664794921875,1.18255615234375,0.091552734375,-7.796825396825397,1.3494505494505493,30.587545787545785,-1.9345703125,-0.0556640625,0.35693359375,0.0,0.0,0.0,26.689133089133087,-60.275457875457874,40.33357753357753,-0.21875,2.0419921875,0.07763671875,-1.16729736328125,0.32806396484375,2.349853515625,-84.7155067155067,26.83907203907204,-22.64078144078144
09:31.317,0.82373046875,-0.02734375,1.8681640625,-1.4801025390625,0.67901611328125,-0.11444091796875,-5.697680097680098,2.0991452991452992,27.88864468864469,-1.8623046875,-0.07666015625,0.46240234375,0.0,0.0,0.0,26.689133089133087,-60.275457875457874,40.33357753357753,-0.224609375,2.03515625,0.08740234375,-0.7476806640625,1.33514404296875,1.9378662109375,-84.11575091575091,27.738705738705736,-20.99145299145299
09:32.438,0.91650390625,0.005859375,1.8486328125,0.58746337890625,5.035400390625,2.044677734375,-5.547741147741148,2.548962148962149,28.03858363858364,-1.947265625,0.00927734375,0.3681640625,0.0,0.0,0.0,22.79072039072039,-60.275457875457874,38.234432234432234,-0.2373046875,2.041015625,0.08349609375,-1.1138916015625,0.8697509765625,2.6397705078125,-84.11575091575091,26.389255189255188,-22.04102564102564
09:33.559,0.85595703125,-0.01904296875,1.880859375,-4.21142578125,0.8544921875,-2.349853515625,-6.897191697191697,2.249084249084249,29.687912087912085,-1.9658203125,-0.0888671875,0.26416015625,0.0,0.0,0.0,26.23931623931624,-61.47496947496947,40.48351648351648,-0.212890625,2.0400390625,0.06689453125,-1.06048583984375,0.762939453125,1.39617919921875,-84.56556776556776,25.18974358974359,-22.34090354090354
09:34.583,0.85302734375,-0.0283203125,1.85791015625,-1.27410888671875,0.5950927734375,-0.091552734375,-7.496947496947497,0.5997557997557997,29.238095238095237,-1.953125,-0.06298828125,0.265625,0.0,0.0,0.0,25.639560439560437,-59.52576312576312,37.48473748473749,-0.22412109375,2.03759765625,0.09033203125,-0.92315673828125,0.7476806640625,1.40380859375,-84.26568986568986,25.78949938949939,-21.59120879120879
09:35.558,0.83544921875,-0.02685546875,1.87255859375,-0.79345703125,0.457763671875,-0.1983642578125,-7.496947496947497,0.5997557997557997,29.238095238095237,-1.93798828125,-0.06298828125,0.26953125,0.0,0.0,0.0,24.739926739926737,-60.72527472527472,40.48351648351648,-0.21337890625,2.04052734375,0.08837890625,-0.81634521484375,0.80108642578125,1.7547607421875,-83.96581196581197,25.78949938949939,-22.19096459096459
09:36.533,0.82373046875,-0.02099609375,1.87841796875,-1.13677978515625,1.73187255859375,0.1983642578125,-6.297435897435897,3.2986568986568985,30.437606837606836,-1.95263671875,-0.06787109375,0.275390625,0.0,0.0,0.0,26.23931623931624,-61.17509157509157,38.084493284493284,-0.2158203125,2.03759765625,0.07568359375,-0.91552734375,0.9002685546875,1.57928466796875,-85.01538461538462,27.288888888888888,-20.841514041514042
09:37.752,0.84423828125,-0.02099609375,1.875,-1.15966796875,0.8544921875,0.11444091796875,-7.197069597069596,1.3494505494505493,28.93821733821734,-1.94873046875,-0.064453125,0.2529296875,0.0,0.0,0.0,24.14017094017094,-59.52576312576312,37.934554334554335,-0.22021484375,2.0390625,0.0849609375,-1.07574462890625,0.732421875,1.86920166015625,-85.16532356532356,26.389255189255188,-23.09059829059829
09:38.678,0.82666015625,-0.02001953125,1.8720703125,-0.99945068359375,1.678466796875,0.335693359375,-6.897191697191697,4.048351648351648,29.687912087912085,-1.9580078125,-0.0849609375,0.28125,0.0,0.0,0.0,25.03980463980464,-59.67570207570208,37.33479853479853,-0.20751953125,2.03759765625,0.07275390625,-0.90789794921875,0.70953369140625,1.64031982421875,-83.21611721611721,26.83907203907204,-21.89108669108669
09:39.848,0.85107421875,-0.01025390625,1.8623046875,-1.3275146484375,0.732421875,-0.18310546875,-7.347008547008547,3.2986568986568985,29.088156288156288,-1.939453125,-0.08447265625,0.2275390625,0.0,0.0,0.0,24.14017094017094,-59.825641025641026,38.234432234432234,-0.2138671875,2.04833984375,0.08056640625,-1.12152099609375,0.6256103515625,2.166748046875,-83.66593406593407,27.288888888888888,-21.14139194139194
09:40.872,0.84423828125,-0.02587890625,1.87353515625,-1.25885009765625,0.9765625,0.3204345703125,-7.946764346764346,2.249084249084249,29.687912087912085,-1.9384765625,-0.0556640625,0.2626953125,0.0,0.0,0.0,24.739926739926737,-60.425396825396824,38.084493284493284,-0.205078125,2.04345703125,0.0927734375,-1.1444091796875,0.61798095703125,1.739501953125,-83.21611721611721,28.03858363858364,-20.841514041514042
09:42.139,0.83251953125,-0.02490234375,1.87646484375,-1.36566162109375,2.03704833984375,0.46539306640625,-7.347008547008547,1.9492063492063492,30.137728937728937,-1.94677734375,-0.048828125,0.2529296875,0.0,0.0,0.0,25.78949938949939,-62.224664224664224,38.38437118437118,-0.21337890625,2.046875,0.07763671875,-0.93841552734375,1.28936767578125,1.3580322265625,-85.76507936507936,27.288888888888888,-20.841514041514042
09:43.407,0.8291015625,-0.02392578125,1.85791015625,-1.42669677734375,0.732421875,0.2593994140625,-7.197069597069596,1.6493284493284492,29.537973137973136,-1.95068359375,-0.05615234375,0.263671875,0.0,0.0,0.0,25.489621489621488,-59.975579975579976,37.634676434676436,-0.2099609375,2.0400390625,0.06884765625,-1.07574462890625,2.22015380859375,1.5106201171875,-84.7155067155067,26.23931623931624,-21.59120879120879
09:44.723,0.85205078125,-0.02490234375,1.86865234375,-1.53350830078125,1.80816650390625,0.0762939453125,-6.597313797313797,2.249084249084249,28.788278388278385,-1.9375,-0.04541015625,0.25634765625,0.0,0.0,0.0,24.739926739926737,-61.47496947496947,37.33479853479853,-0.2119140625,2.04833984375,0.083984375,-0.5035400390625,1.27410888671875,1.4495849609375,-85.16532356532356,25.93943833943834,-22.34090354090354
09:46.186,0.8515625,-0.0224609375,1.87060546875,-1.47247314453125,0.69427490234375,-0.34332275390625,-7.796825396825397,1.6493284493284492,28.188522588522588,-1.943359375,-0.091796875,0.2734375,0.0,0.0,0.0,25.93943833943834,-59.52576312576312,37.934554334554335,-0.1904296875,2.04541015625,0.1123046875,-1.190185546875,-0.1983642578125,1.9378662109375,-83.36605616605617,26.389255189255188,-20.39169719169719
09:47.160,0.845703125,-0.0283203125,1.86328125,-1.251220703125,0.72479248046875,-0.0152587890625,-6.897191697191697,3.598534798534798,29.388034188034187,-1.9453125,-0.07177734375,0.28271484375,0.0,0.0,0.0,25.489621489621488,-60.425396825396824,38.38437118437118,-0.20703125,2.04248046875,0.08935546875,-1.007080078125,0.74005126953125,1.8768310546875,-83.21611721611721,27.588766788766787,-19.49206349206349
09:48.184,0.87353515625,-0.0166015625,1.85498046875,-1.42669677734375,1.068115234375,0.152587890625,-7.796825396825397,4.498168498168498,27.13894993894994,-1.93994140625,-0.0546875,0.29541015625,0.0,0.0,0.0,25.639560439560437,-59.825641025641026,38.234432234432234,-0.203125,2.0439453125,0.095703125,-0.732421875,0.6256103515625,1.79290771484375,-83.21611721611721,27.588766788766787,-19.49206349206349
09:49.062,0.86962890625,-0.01318359375,1.84765625,-1.52587890625,1.18255615234375,0.0457763671875,-7.646886446886446,2.548962148962149,30.437606837606836,-1.93115234375,-0.0654296875,0.29443359375,0.0,0.0,0.0,24.739926739926737,-61.47496947496947,37.634676434676436,-0.21630859375,2.05615234375,0.09716796875,-1.0833740234375,0.9765625,1.556396484375,-83.66593406593407,27.288888888888888,-22.64078144078144
09:50.037,0.88232421875,-0.00146484375,1.85986328125,-1.27410888671875,-0.31280517578125,-0.6866455078125,-7.197069597069596,5.247863247863248,27.588766788766787,-1.90576171875,-0.03857421875,0.46240234375,0.0,0.0,0.0,25.18974358974359,-59.825641025641026,38.53431013431013,-0.21484375,2.048828125,0.0810546875,-0.64849853515625,1.89208984375,0.51116943359375,-85.01538461538462,26.23931623931624,-22.19096459096459
09:51.061,0.86669921875,-0.0107421875,1.86572265625,-1.5106201171875,1.373291015625,0.030517578125,-6.597313797313797,1.4993894993894994,31.187301587301587,-1.87353515625,-0.0107421875,0.5205078125,0.0,0.0,0.0,26.23931623931624,-61.47496947496947,44.08205128205128,-0.19140625,2.037109375,0.09619140625,-0.43487548828125,2.9754638671875,0.48065185546875,-84.56556776556776,26.689133089133087,-20.69157509157509
09:51.938,0.79541015625,-0.03955078125,1.85693359375,-2.0294189453125,3.37982177734375,-0.3509521484375,-7.946764346764346,4.348229548229548,25.33968253968254,-1.9111328125,-0.06298828125,0.46337890625,0.0,0.0,0.0,25.489621489621488,-58.626129426129424,43.63223443223443,-0.17041015625,2.068359375,0.046875,-0.91552734375,1.51824951171875,5.4779052734375,-83.96581196581197,25.78949938949939,-19.791941391941393
09:53.109,0.8447265625,-0.03125,1.8623046875,-0.46539306640625,2.98309326171875,1.04522705078125,-8.696459096459096,2.998778998778999,28.788278388278385,-1.90478515625,-0.060546875,0.3994140625,0.0,0.0,0.0,25.489621489621488,-60.72527472527472,41.98290598290598,-0.2001953125,2.04248046875,0.05615234375,-0.90789794921875,1.01470947265625,0.46539306640625,-83.96581196581197,25.489621489621488,-22.19096459096459
09:54.132,0.89697265625,-0.02587890625,1.8525390625,-0.762939453125,2.166748046875,0.00762939453125,-4.348229548229548,4.947985347985348,24.739926739926737,-1.91015625,-0.046875,0.43115234375,0.0,0.0,0.0,25.78949938949939,-61.17509157509157,42.58266178266178,-0.181640625,2.0458984375,0.07666015625,-1.2054443359375,0.7171630859375,1.739501953125,-85.46520146520146,26.539194139194137,-21.14139194139194
09:55.058,0.95166015625,-0.052734375,1.833984375,-2.66265869140625,-2.8533935546875,1.21307373046875,-5.997557997557998,2.399023199023199,28.488400488400487,-1.9052734375,-0.0283203125,0.4365234375,0.0,0.0,0.0,24.739926739926737,-59.22588522588522,42.28278388278388,-0.1845703125,2.04345703125,0.06201171875,-0.98419189453125,0.79345703125,1.96075439453125,-84.86544566544566,27.438827838827837,-22.04102564102564
09:56.326,0.88232421875,-0.015625,1.82666015625,-4.1351318359375,3.0975341796875,0.05340576171875,-6.897191697191697,3.598534798534798,26.389255189255188,-1.91064453125,-0.052734375,0.46728515625,0.0,0.0,0.0,25.489621489621488,-60.72527472527472,41.533089133089135,-0.18212890625,2.04541015625,0.05224609375,-0.9307861328125,0.762939453125,1.68609619140625,-84.86544566544566,25.18974358974359,-21.741147741147742
09:57.447,0.94189453125,-0.03466796875,1.81591796875,-1.31988525390625,-0.31280517578125,0.1220703125,-6.897191697191697,1.4993894993894994,30.137728937728937,-1.90478515625,-0.04736328125,0.423828125,0.0,0.0,0.0,25.78949938949939,-59.975579975579976,41.533089133089135,-0.181640625,2.05224609375,0.05615234375,-1.0528564453125,0.9307861328125,1.2969970703125,-84.7155067155067,26.23931623931624,-24.29010989010989
09:58.471,0.8876953125,-0.02001953125,1.84912109375,-1.41143798828125,1.0986328125,0.17547607421875,-5.247863247863248,2.249084249084249,25.93943833943834,-1.92236328125,-0.03271484375,0.43310546875,0.0,0.0,0.0,25.18974358974359,-59.52576312576312,42.13284493284493,-0.18359375,2.0478515625,0.06298828125,-0.92315673828125,0.93841552734375,1.19781494140625,-83.81587301587301,25.93943833943834,-20.99145299145299
09:59.592,0.859375,-0.01513671875,1.86083984375,-1.6632080078125,1.2359619140625,0.152587890625,-5.847619047619047,2.998778998778999,23.99023199023199,-1.9091796875,-0.05517578125,0.43212890625,0.0,0.0,0.0,23.84029304029304,-60.57533577533577,41.08327228327228,-0.19140625,2.0361328125,0.08056640625,-0.9765625,1.38092041015625,1.7547607421875,-85.46520146520146,26.83907203907204,-22.64078144078144
10:00.664,0.8271484375,-0.029296875,1.87158203125,-1.3580322265625,1.57928466796875,-0.03814697265625,-6.597313797313797,3.2986568986568985,30.437606837606836,-1.90771484375,-0.06787109375,0.4296875,0.0,0.0,0.0,27.13894993894994,-60.275457875457874,42.43272283272283,-0.17919921875,2.0458984375,0.05908203125,-1.2359619140625,0.8697509765625,1.68609619140625,-86.51477411477411,26.539194139194137,-20.841514041514042
10:01.834,0.81201171875,-0.013671875,1.861328125,-1.922607421875,1.71661376953125,0.16021728515625,-6.747252747252747,1.0495726495726496,31.337240537240536,-1.9140625,-0.0537109375,0.42333984375,0.0,0.0,0.0,24.29010989010989,-60.72527472527472,40.48351648351648,-0.18505859375,2.04736328125,0.0654296875,-0.9002685546875,0.78582763671875,1.96075439453125,-83.06617826617827,26.389255189255188,-20.39169719169719
10:02.761,0.81201171875,-0.013671875,1.861328125,-1.50299072265625,1.9989013671875,0.3204345703125,-6.897191697191697,2.249084249084249,28.03858363858364,-1.91162109375,-0.0419921875,0.45263671875,0.0,0.0,0.0,26.539194139194137,-59.67570207570208,41.23321123321123,-0.17626953125,2.048828125,0.068359375,-0.96893310546875,0.8392333984375,2.11334228515625,-82.76630036630036,27.13894993894994,-23.09059829059829
10:03.882,0.81982421875,-0.01416015625,1.87744140625,-1.04522705078125,0.885009765625,0.09918212890625,-7.796825396825397,2.848840048840049,29.537973137973136,-1.93701171875,-0.04736328125,0.4619140625,0.0,0.0,0.0,24.739926739926737,-59.67570207570208,40.93333333333333,-0.18017578125,2.05126953125,0.0673828125,-1.06048583984375,0.6866455078125,1.67083740234375,-84.26568986568986,25.03980463980464,-21.59120879120879
10:04.906,0.86328125,-0.0263671875,1.8486328125,-1.89208984375,0.16021728515625,0.83160400390625,-6.747252747252747,2.848840048840049,29.987789987789988,-1.9052734375,-0.0517578125,0.40625,0.0,0.0,0.0,24.739926739926737,-59.975579975579976,40.93333333333333,-0.1787109375,2.04736328125,0.0625,-0.9765625,0.70953369140625,1.68609619140625,-84.7155067155067,25.03980463980464,-22.64078144078144
10:05.978,0.869140625,0.00048828125,1.8671875,-0.63323974609375,1.88446044921875,0.20599365234375,-7.347008547008547,2.998778998778999,31.787057387057384,-1.90576171875,-0.06396484375,0.4150390625,0.0,0.0,0.0,25.93943833943834,-60.57533577533577,40.33357753357753,-0.18017578125,2.048828125,0.0634765625,-0.91552734375,0.93841552734375,1.60980224609375,-84.56556776556776,25.93943833943834,-21.44126984126984
10:06.953,0.830078125,-0.0126953125,1.8662109375,-1.35040283203125,0.213623046875,-0.274658203125,-7.496947496947497,1.6493284493284492,30.587545787545785,-1.92919921875,-0.060546875,0.392578125,0.0,0.0,0.0,26.23931623931624,-59.67570207570208,41.23321123321123,-0.1796875,2.0576171875,0.06591796875,-1.10626220703125,0.6561279296875,1.953125,-86.66471306471306,24.589987789987788,-22.04102564102564
10:08.026,0.83447265625,0.0048828125,1.8505859375,-1.57928466796875,1.861572265625,0.64849853515625,-7.347008547008547,3.2986568986568985,29.388034188034187,-1.90673828125,-0.06982421875,0.42138671875,0.0,0.0,0.0,23.39047619047619,-59.52576312576312,40.63345543345543,-0.177734375,2.02978515625,0.08056640625,-0.92315673828125,0.4425048828125,1.64031982421875,-85.01538461538462,24.29010989010989,-21.14139194139194
10:09.098,0.775390625,-0.02978515625,1.8603515625,-1.15966796875,1.1444091796875,0.98419189453125,-7.347008547008547,3.2986568986568985,28.338461538461537,-1.92138671875,-0.056640625,0.4033203125,0.0,0.0,0.0,25.489621489621488,-60.425396825396824,41.98290598290598,-0.1806640625,2.048828125,0.07958984375,0.3509521484375,-0.518798828125,1.42669677734375,-84.7155067155067,24.739926739926737,-20.54163614163614
10:10.073,0.8173828125,-0.0048828125,1.8818359375,-1.59454345703125,-0.72479248046875,-0.396728515625,-7.496947496947497,3.8984126984126983,28.93821733821734,-1.95166015625,-0.017578125,0.36279296875,0.0,0.0,0.0,24.29010989010989,-59.22588522588522,41.533089133089135,-0.1767578125,2.0458984375,0.07666015625,-0.701904296875,1.129150390625,1.5869140625,-84.26568986568986,26.83907203907204,-20.841514041514042
10:11.194,0.8505859375,0.00048828125,1.8681640625,-1.6326904296875,-0.30517578125,0.06103515625,-7.796825396825397,2.848840048840049,28.188522588522588,-1.904296875,-0.0458984375,0.3583984375,0.0,0.0,0.0,25.18974358974359,-59.825641025641026,38.98412698412698,-0.1806640625,2.04638671875,0.07275390625,-1.13677978515625,0.9765625,1.64794921875,-86.06495726495726,23.99023199023199,-22.64078144078144
10:12.365,0.6669921875,-0.01904296875,1.93896484375,-1.8157958984375,2.166748046875,0.11444091796875,-7.946764346764346,1.9492063492063492,29.088156288156288,-1.921875,-0.0341796875,0.38623046875,0.0,0.0,0.0,24.739926739926737,-60.72527472527472,39.883760683760684,-0.173828125,2.04541015625,0.06201171875,-1.28173828125,0.89263916015625,1.5411376953125,-84.86544566544566,25.18974358974359,-21.741147741147742
10:13.486,0.697265625,-0.013671875,1.9140625,-1.16729736328125,0.64849853515625,0.1373291015625,-7.197069597069596,3.4485958485958483,29.238095238095237,-1.9208984375,-0.0498046875,0.3818359375,0.0,0.0,0.0,24.29010989010989,-59.975579975579976,40.93333333333333,-0.17578125,2.05322265625,0.05810546875,-1.0223388671875,0.640869140625,2.166748046875,-85.61514041514042,25.639560439560437,-22.79072039072039
10:14.656,0.703125,-0.01611328125,1.9228515625,-1.16729736328125,0.69427490234375,0.18310546875,-6.297435897435897,4.348229548229548,29.388034188034187,-1.91064453125,-0.05078125,0.39453125,0.0,0.0,0.0,26.689133089133087,-60.57533577533577,41.08327228327228,-0.1806640625,2.04248046875,0.0751953125,-1.13677978515625,0.70953369140625,1.71661376953125,-83.81587301587301,27.438827838827837,-22.04102564102564
10:15.777,0.7109375,-0.01513671875,1.904296875,-2.8839111328125,0.3662109375,-0.90789794921875,-7.496947496947497,3.8984126984126983,30.287667887667887,-1.93017578125,-0.04248046875,0.3857421875,0.0,0.0,0.0,25.639560439560437,-61.32503052503052,40.33357753357753,-0.17626953125,2.04345703125,0.05810546875,-1.007080078125,0.74005126953125,1.44195556640625,-85.01538461538462,25.78949938949939,-20.841514041514042
10:16.850,0.7109375,-0.02197265625,1.92236328125,-0.96893310546875,1.5106201171875,0.4119873046875,-7.197069597069596,4.498168498168498,29.537973137973136,-1.9326171875,-0.044921875,0.37841796875,0.0,0.0,0.0,26.83907203907204,-61.17509157509157,40.48351648351648,-0.16943359375,2.0439453125,0.05712890625,-0.9613037109375,0.95367431640625,1.8768310546875,-85.61514041514042,25.93943833943834,-21.741147741147742
10:17.922,0.70166015625,-0.01318359375,1.927734375,-1.71661376953125,1.57928466796875,-0.274658203125,-6.747252747252747,3.4485958485958483,29.238095238095237,-1.9033203125,-0.0546875,0.38720703125,0.0,0.0,0.0,24.589987789987788,-60.57533577533577,41.08327228327228,-0.1787109375,2.04345703125,0.06494140625,-1.83868408203125,0.396728515625,1.65557861328125,-84.7155067155067,24.739926739926737,-22.19096459096459
10:18.799,0.69873046875,-0.009765625,1.91015625,-0.9307861328125,0.08392333984375,0.19073486328125,-5.697680097680098,5.247863247863248,29.537973137973136,-1.91845703125,-0.04443359375,0.38427734375,0.0,0.0,0.0,25.03980463980464,-59.975579975579976,42.28278388278388,-0.18017578125,2.04296875,0.0595703125,-0.81634521484375,0.8544921875,0.8544921875,-83.96581196581197,26.539194139194137,-22.19096459096459
10:19.921,0.70263671875,-0.037109375,1.90771484375,-1.312255859375,1.922607421875,0.17547607421875,-7.946764346764346,4.348229548229548,29.088156288156288,-1.91015625,-0.0546875,0.375,0.0,0.0,0.0,25.489621489621488,-59.67570207570208,41.533089133089135,-0.27099609375,2.06201171875,0.06005859375,-0.23651123046875,0.823974609375,2.29644775390625,-84.86544566544566,26.389255189255188,-21.44126984126984
10:20.896,0.7109375,-0.03076171875,1.92236328125,-1.2969970703125,2.25830078125,0.2593994140625,-6.597313797313797,3.598534798534798,30.437606837606836,-1.92529296875,-0.0458984375,0.37451171875,0.0,0.0,0.0,23.84029304029304,-60.275457875457874,40.33357753357753,-0.16552734375,2.03857421875,0.06201171875,-0.89263916015625,0.48828125,1.8157958984375,-84.26568986568986,26.83907203907204,-21.14139194139194
10:22.017,0.744140625,-0.0234375,1.9111328125,-1.39617919921875,2.7923583984375,0.3814697265625,-7.496947496947497,3.8984126984126983,29.987789987789988,-1.935546875,-0.07470703125,0.36767578125,0.0,0.0,0.0,23.99023199023199,-59.975579975579976,39.883760683760684,-0.166015625,2.05078125,0.072265625,-1.01470947265625,1.06048583984375,2.1820068359375,-84.26568986568986,23.99023199023199,-21.59120879120879
10:23.285,0.65380859375,-0.01025390625,2.0078125,-3.35693359375,7.37762451171875,-0.1983642578125,-6.747252747252747,3.4485958485958483,27.88864468864469,-1.93798828125,-0.0224609375,0.36279296875,0.0,0.0,0.0,24.88986568986569,-60.87521367521367,39.28400488400488,-0.17919921875,2.048828125,0.06494140625,-0.946044921875,0.6561279296875,1.4801025390625,-84.56556776556776,24.589987789987788,-22.04102564102564
10:24.308,0.70263671875,-0.02197265625,1.92333984375,-1.38092041015625,0.06103515625,-0.42724609375,-6.747252747252747,4.1982905982905985,29.987789987789988,-1.927734375,-0.0458984375,0.3720703125,0.0,0.0,0.0,24.88986568986569,-60.87521367521367,39.28400488400488,-0.17041015625,2.046875,0.0771484375,-0.946044921875,0.6561279296875,1.4801025390625,-83.36605616605617,24.589987789987788,-22.34090354090354
10:25.234,0.6806640625,-0.013671875,1.9228515625,-1.67083740234375,1.007080078125,0.06103515625,-7.946764346764346,3.2986568986568985,28.338461538461537,-1.92822265625,-0.04541015625,0.35888671875,0.0,0.0,0.0,24.589987789987788,-60.87521367521367,39.583882783882785,-0.1787109375,2.0400390625,0.0615234375,-1.38092041015625,0.9002685546875,1.35040283203125,-84.11575091575091,24.88986568986569,-20.99145299145299
10:26.258,0.71826171875,-0.0283203125,1.90966796875,-1.10626220703125,1.15203857421875,0.08392333984375,-6.747252747252747,3.1487179487179486,29.238095238095237,-1.9365234375,-0.04931640625,0.35693359375,0.0,0.0,0.0,23.99023199023199,-59.22588522588522,39.433943833943836,-0.17626953125,2.0458984375,0.05908203125,-1.068115234375,0.70953369140625,1.7852783203125,-85.61514041514042,24.88986568986569,-22.79072039072039
10:27.282,0.7255859375,-0.0234375,1.90673828125,-1.44195556640625,1.2359619140625,0.22125244140625,-8.246642246642246,4.1982905982905985,29.238095238095237,-1.92919921875,-0.0224609375,0.36279296875,0.0,0.0,0.0,25.03980463980464,-59.22588522588522,38.38437118437118,-0.1728515625,2.04638671875,0.0712890625,-1.068115234375,0.70953369140625,1.7852783203125,-84.26568986568986,25.78949938949939,-23.99023199023199
10:28.257,0.72900390625,-0.03173828125,1.90234375,-1.0833740234375,2.25830078125,0.0457763671875,-7.946764346764346,5.847619047619047,29.687912087912085,-1.92138671875,-0.0537109375,0.34423828125,0.0,0.0,0.0,25.93943833943834,-60.275457875457874,41.08327228327228,-0.17529296875,2.0439453125,0.06982421875,-1.12152099609375,0.77056884765625,1.71661376953125,-84.86544566544566,28.188522588522588,-23.39047619047619
10:29.232,0.716796875,-0.03271484375,1.90966796875,-1.434326171875,0.6561279296875,0.25177001953125,-8.546520146520146,7.047130647130647,27.88864468864469,-1.93212890625,-0.03564453125,0.35791015625,0.0,0.0,0.0,24.88986568986569,-60.57533577533577,41.08327228327228,-0.1689453125,2.04931640625,0.07470703125,-0.96893310546875,0.6256103515625,1.86920166015625,-84.86544566544566,27.13894993894994,-23.39047619047619
10:30.354,0.705078125,-0.02587890625,1.923828125,-1.31988525390625,0.96893310546875,-0.06103515625,-5.547741147741148,2.548962148962149,28.338461538461537,-1.92578125,-0.04296875,0.37841796875,0.0,0.0,0.0,24.14017094017094,-61.32503052503052,40.33357753357753,-0.16943359375,2.05078125,0.06640625,-0.77056884765625,0.72479248046875,1.77764892578125,-85.01538461538462,26.83907203907204,-22.64078144078144
10:31.426,0.7080078125,-0.0322265625,1.9130859375,-1.1138916015625,1.24359130859375,0.1373291015625,-4.798046398046398,4.048351648351648,28.03858363858364,-1.92578125,-0.05029296875,0.32958984375,0.0,0.0,0.0,25.03980463980464,-60.72527472527472,39.883760683760684,-0.16162109375,2.03515625,0.0673828125,-0.9613037109375,0.99945068359375,1.94549560546875,-84.7155067155067,25.03980463980464,-22.94065934065934
10:32.450,0.70751953125,-0.02734375,1.91455078125,-1.2664794921875,1.79290771484375,0.5645751953125,-6.447374847374848,3.8984126984126983,30.587545787545785,-1.91748046875,-0.04150390625,0.3525390625,0.0,0.0,0.0,25.93943833943834,-60.275457875457874,40.033699633699634,-0.16162109375,2.03515625,0.0673828125,-0.86212158203125,0.74005126953125,1.85394287109375,-84.11575091575091,26.389255189255188,-20.99145299145299
10:33.327,0.703125,-0.02197265625,1.919921875,-1.2664794921875,1.2664794921875,0.03814697265625,-7.496947496947497,3.8984126984126983,26.539194139194137,-1.9248046875,-0.0615234375,0.322265625,0.0,0.0,0.0,25.18974358974359,-60.87521367521367,40.033699633699634,-0.17041015625,2.0400390625,0.0751953125,-0.8697509765625,0.6103515625,1.708984375,-83.81587301587301,24.88986568986569,-19.941880341880342
10:34.692,0.7119140625,-0.02099609375,1.89990234375,-1.44195556640625,2.13623046875,0.0762939453125,-6.897191697191697,5.847619047619047,27.738705738705736,-1.93798828125,-0.0380859375,0.37353515625,0.0,0.0,0.0,25.489621489621488,-59.975579975579976,38.084493284493284,-0.173828125,2.0390625,0.06298828125,-1.21307373046875,0.8544921875,1.51824951171875,-85.16532356532356,27.438827838827837,-22.04102564102564
10:35.716,0.703125,-0.025390625,1.91650390625,-0.91552734375,1.76239013671875,0.335693359375,-6.897191697191697,5.097924297924298,27.738705738705736,-1.94189453125,-0.0380859375,0.359375,0.0,0.0,0.0,23.84029304029304,-60.275457875457874,40.033699633699634,-0.1669921875,2.04248046875,0.06103515625,-1.02996826171875,1.0986328125,1.62506103515625,-84.86544566544566,27.13894993894994,-20.99145299145299
10:36.983,0.70654296875,-0.04150390625,1.91552734375,-1.59454345703125,0.8697509765625,-0.38909912109375,-7.197069597069596,7.047130647130647,25.18974358974359,-1.93408203125,-0.0546875,0.3212890625,0.0,0.0,0.0,23.690354090354088,-60.72527472527472,39.13406593406593,-0.1728515625,2.04931640625,0.06884765625,-1.07574462890625,0.69427490234375,2.0599365234375,-84.11575091575091,25.93943833943834,-21.44126984126984
10:38.202,0.6953125,-0.0400390625,1.92236328125,-1.25885009765625,1.38092041015625,0.20599365234375,-7.197069597069596,3.4485958485958483,30.287667887667887,-1.9365234375,-0.02734375,0.3642578125,0.0,0.0,0.0,25.78949938949939,-58.92600732600732,39.883760683760684,-0.177734375,2.05078125,0.0625,-1.0833740234375,0.40435791015625,1.68609619140625,-84.7155067155067,26.23931623931624,-22.64078144078144
10:39.323,0.70166015625,-0.0361328125,1.91845703125,-1.40380859375,1.09100341796875,0.0457763671875,-5.997557997557998,4.947985347985348,24.739926739926737,-1.92724609375,-0.041015625,0.3359375,0.0,0.0,0.0,25.78949938949939,-59.67570207570208,40.18363858363858,-0.16796875,2.052734375,0.07080078125,-1.12152099609375,0.518798828125,1.48773193359375,-83.36605616605617,26.389255189255188,-20.69157509157509
10:40.689,0.71142578125,-0.02783203125,1.91650390625,-1.5716552734375,1.89971923828125,0.54931640625,-5.247863247863248,5.097924297924298,24.589987789987788,-1.92626953125,-0.03662109375,0.34765625,0.0,0.0,0.0,24.589987789987788,-60.275457875457874,38.234432234432234,-0.1669921875,2.05029296875,0.07373046875,-0.8697509765625,0.823974609375,1.556396484375,-85.61514041514042,24.88986568986569,-21.44126984126984
10:41.956,0.7197265625,-0.03662109375,1.90771484375,-1.251220703125,1.09100341796875,0.3204345703125,-6.297435897435897,4.798046398046398,29.687912087912085,-1.9521484375,-0.05224609375,0.34423828125,0.0,0.0,0.0,26.389255189255188,-61.624908424908426,39.583882783882785,-0.17431640625,2.0478515625,0.0595703125,-1.251220703125,0.99945068359375,2.41851806640625,-83.96581196581197,25.489621489621488,-22.64078144078144
10:42.833,0.71240234375,-0.0341796875,1.9130859375,-1.28173828125,0.8392333984375,0.09918212890625,-6.747252747252747,3.4485958485958483,28.93821733821734,-1.92578125,-0.05517578125,0.33642578125,0.0,0.0,0.0,26.389255189255188,-59.825641025641026,38.234432234432234,-0.16748046875,2.052734375,0.0771484375,-0.9002685546875,0.86212158203125,1.82342529296875,-82.16654456654456,25.489621489621488,-20.54163614163614
10:43.906,0.73486328125,-0.029296875,1.89697265625,-1.434326171875,1.7852783203125,0.00762939453125,-7.646886446886446,3.598534798534798,30.737484737484735,-1.9150390625,-0.04443359375,0.3310546875,0.0,0.0,0.0,24.88986568986569,-60.57533577533577,40.33357753357753,-0.171875,2.056640625,0.06005859375,-0.93841552734375,0.6561279296875,1.5106201171875,-84.56556776556776,24.88986568986569,-19.941880341880342
10:45.076,0.72900390625,-0.04736328125,1.9150390625,-1.068115234375,1.0528564453125,0.5340576171875,-5.547741147741148,3.598534798534798,29.687912087912085,-1.94140625,-0.03466796875,0.3662109375,0.0,0.0,0.0,24.739926739926737,-59.67570207570208,38.38437118437118,-0.16943359375,2.0439453125,0.068359375,-0.98419189453125,0.80108642578125,1.4495849609375,-84.56556776556776,26.689133089133087,-21.741147741147742
10:46.148,0.7470703125,-0.05078125,1.91064453125,-1.45721435546875,1.4190673828125,0.08392333984375,-7.197069597069596,2.848840048840049,29.238095238095237,-1.91015625,-0.04931640625,0.38232421875,0.0,0.0,0.0,24.88986568986569,-59.07594627594627,38.53431013431013,-0.17138671875,2.05517578125,0.07568359375,-0.6256103515625,0.74005126953125,1.68609619140625,-85.61514041514042,25.18974358974359,-22.79072039072039
10:47.367,0.7431640625,-0.03662109375,1.9169921875,-1.312255859375,1.41143798828125,0.152587890625,-6.447374847374848,3.8984126984126983,30.587545787545785,-1.94091796875,-0.0498046875,0.37646484375,0.0,0.0,0.0,24.739926739926737,-59.975579975579976,40.93333333333333,-0.16796875,2.0517578125,0.06689453125,-0.91552734375,0.83160400390625,1.3885498046875,-84.86544566544566,24.88986568986569,-22.04102564102564
10:48.489,0.7421875,-0.033203125,1.90283203125,-1.8768310546875,0.6866455078125,-0.09918212890625,-6.747252747252747,3.4485958485958483,29.537973137973136,-1.91748046875,-0.04150390625,0.35986328125,0.0,0.0,0.0,26.23931623931624,-61.17509157509157,40.18363858363858,-0.17822265625,2.04931640625,0.06591796875,-0.66375732421875,0.90789794921875,1.91497802734375,-83.06617826617827,25.93943833943834,-22.79072039072039
10:49.415,0.73779296875,-0.03173828125,1.90283203125,-0.92315673828125,1.53350830078125,-0.0762939453125,-6.747252747252747,4.1982905982905985,28.488400488400487,-1.9248046875,-0.0693359375,0.32275390625,0.0,0.0,0.0,25.03980463980464,-60.72527472527472,38.68424908424908,-0.17822265625,2.04931640625,0.06591796875,-0.885009765625,0.83160400390625,1.91497802734375,-84.86544566544566,24.88986568986569,-21.741147741147742
10:50.390,0.71923828125,-0.04833984375,1.91015625,-1.0833740234375,0.9765625,0.06103515625,-5.847619047619047,2.998778998778999,31.487179487179485,-1.93115234375,-0.0341796875,0.345703125,0.0,0.0,0.0,23.690354090354088,-59.67570207570208,39.13406593406593,-0.1748046875,2.03857421875,0.06298828125,-0.9613037109375,0.55694580078125,1.16729736328125,-86.81465201465201,28.03858363858364,-21.14139194139194
10:51.462,0.7109375,-0.0546875,1.90625,-1.2969970703125,0.90789794921875,0.18310546875,-8.396581196581197,4.798046398046398,28.338461538461537,-1.9296875,-0.041015625,0.34521484375,0.0,0.0,0.0,24.88986568986569,-59.52576312576312,40.63345543345543,-0.16748046875,2.05078125,0.0625,-1.0833740234375,0.74005126953125,1.60980224609375,-83.96581196581197,26.23931623931624,-21.14139194139194
10:52.535,0.736328125,-0.04345703125,1.916015625,-1.1138916015625,1.16729736328125,-0.274658203125,-5.847619047619047,3.2986568986568985,29.687912087912085,-1.923828125,-0.05224609375,0.35986328125,0.0,0.0,0.0,25.489621489621488,-59.975579975579976,38.38437118437118,-0.1669921875,2.0517578125,0.0732421875,-1.1444091796875,1.007080078125,1.5716552734375,-85.76507936507936,25.03980463980464,-21.59120879120879
10:53.412,0.767578125,-0.048828125,1.88037109375,-1.31988525390625,0.00762939453125,0.4730224609375,-6.747252747252747,3.4485958485958483,29.238095238095237,-1.923828125,-0.05224609375,0.35986328125,0.0,0.0,0.0,25.03980463980464,-58.92600732600732,41.23321123321123,-0.1708984375,2.04443359375,0.0693359375,-0.99945068359375,0.77056884765625,1.6632080078125,-83.96581196581197,25.489621489621488,-22.19096459096459
10:54.485,0.7509765625,-0.04248046875,1.9013671875,-1.1749267578125,1.0528564453125,0.0152587890625,-7.796825396825397,3.8984126984126983,31.337240537240536,-1.919921875,-0.04541015625,0.35400390625,0.0,0.0,0.0,25.639560439560437,-60.57533577533577,40.33357753357753,-0.169921875,2.048828125,0.05859375,-0.946044921875,0.5340576171875,1.6937255859375,-84.56556776556776,26.689133089133087,-22.04102564102564
10:55.460,0.79736328125,-0.03857421875,1.8916015625,-1.8463134765625,0.98419189453125,1.68609619140625,-7.796825396825397,2.848840048840049,29.537973137973136,-1.9169921875,-0.02978515625,0.3603515625,0.0,0.0,0.0,25.93943833943834,-60.87521367521367,40.33357753357753,-0.169921875,2.048828125,0.05859375,-1.04522705078125,0.80108642578125,1.57928466796875,-84.7155067155067,25.03980463980464,-22.64078144078144
10:56.483,0.74462890625,-0.017578125,1.9052734375,-1.33514404296875,1.01470947265625,0.1068115234375,-7.496947496947497,3.8984126984126983,30.587545787545785,-1.9267578125,-0.05517578125,0.3076171875,0.0,0.0,0.0,24.88986568986569,-60.87521367521367,38.53431013431013,-0.166015625,2.044921875,0.0712890625,-1.5869140625,0.9765625,1.739501953125,-85.76507936507936,25.03980463980464,-21.59120879120879
10:57.410,0.7646484375,-0.03466796875,1.89013671875,-1.7242431640625,-1.3885498046875,0.05340576171875,-6.447374847374848,2.399023199023199,29.987789987789988,-1.93798828125,-0.037109375,0.345703125,0.0,0.0,0.0,25.93943833943834,-60.57533577533577,41.08327228327228,-0.166015625,2.044921875,0.0712890625,-0.6866455078125,0.92315673828125,1.129150390625,-84.56556776556776,25.639560439560437,-22.34090354090354
10:58.385,0.72509765625,-0.03369140625,1.91259765625,-0.98419189453125,0.6866455078125,0.152587890625,-7.197069597069596,4.947985347985348,30.287667887667887,-1.9306640625,-0.0458984375,0.3427734375,0.0,0.0,0.0,26.23931623931624,-60.425396825396824,39.13406593406593,-0.16357421875,2.05224609375,0.0693359375,-1.09100341796875,0.823974609375,1.64031982421875,-86.06495726495726,26.23931623931624,-23.690354090354088
10:59.311,0.7197265625,-0.04638671875,1.92236328125,-1.2359619140625,0.54931640625,-0.67138671875,-5.697680097680098,4.498168498168498,30.587545787545785,-1.92333984375,-0.04833984375,0.3330078125,0.0,0.0,0.0,26.23931623931624,-60.425396825396824,39.13406593406593,-0.16796875,2.0400390625,0.07373046875,-1.068115234375,0.885009765625,1.97601318359375,-86.51477411477411,24.739926739926737,-20.841514041514042
11:00.335,0.72705078125,-0.04052734375,1.89990234375,-1.007080078125,1.64031982421875,0.2899169921875,-5.847619047619047,2.548962148962149,29.388034188034187,-1.93212890625,-0.03369140625,0.34716796875,0.0,0.0,0.0,25.639560439560437,-59.07594627594627,38.98412698412698,-0.1630859375,2.05419921875,0.07177734375,-0.98419189453125,0.8087158203125,1.82342529296875,-85.91501831501832,25.639560439560437,-22.34090354090354
11:01.261,0.73388671875,-0.03515625,1.89697265625,-1.40380859375,1.24359130859375,0.09918212890625,-5.997557997557998,3.8984126984126983,31.936996336996337,-1.92333984375,-0.04931640625,0.34912109375,0.0,0.0,0.0,25.639560439560437,-59.07594627594627,38.98412698412698,-0.1728515625,2.0439453125,0.07470703125,-0.98419189453125,0.8087158203125,1.82342529296875,-85.91501831501832,25.639560439560437,-22.34090354090354
11:02.138,0.73486328125,-0.04345703125,1.919921875,-1.04522705078125,1.02996826171875,0.00762939453125,-6.447374847374848,4.1982905982905985,29.987789987789988,-1.91943359375,-0.0439453125,0.345703125,0.0,0.0,0.0,24.88986568986569,-58.326251526251525,38.234432234432234,-0.1669921875,2.044921875,0.06982421875,-1.220703125,0.64849853515625,1.80816650390625,-85.76507936507936,25.03980463980464,-21.14139194139194
11:03.065,0.72021484375,-0.04443359375,1.919921875,-1.27410888671875,0.46539306640625,0.09918212890625,-6.747252747252747,2.399023199023199,29.537973137973136,-1.94091796875,-0.05126953125,0.3505859375,0.0,0.0,0.0,23.24053724053724,-59.67570207570208,39.883760683760684,-0.1591796875,2.04638671875,0.08203125,-1.03759765625,1.01470947265625,1.6326904296875,-85.01538461538462,25.78949938949939,-20.09181929181929
11:03.991,0.7119140625,-0.0439453125,1.91064453125,-1.190185546875,0.6561279296875,0.23651123046875,-6.897191697191697,4.348229548229548,29.088156288156288,-1.916015625,-0.04638671875,0.34326171875,0.0,0.0,0.0,26.23931623931624,-59.975579975579976,40.18363858363858,-0.16357421875,2.04638671875,0.0791015625,-0.81634521484375,0.732421875,1.708984375,-85.76507936507936,26.539194139194137,-21.59120879120879
11:04.917,0.71435546875,-0.04541015625,1.92041015625,-1.18255615234375,1.1444091796875,0.2593994140625,-6.897191697191697,4.798046398046398,30.737484737484735,-1.94384765625,-0.04248046875,0.3251953125,0.0,0.0,0.0,23.99023199023199,-61.924786324786325,39.883760683760684,-0.14990234375,2.060546875,0.0791015625,-0.9765625,0.6103515625,2.3040771484375,-83.66593406593407,25.489621489621488,-22.19096459096459
11:06.087,0.70849609375,-0.03515625,1.9111328125,-1.5411376953125,0.0152587890625,-0.05340576171875,-6.747252747252747,5.697680097680098,31.337240537240536,-1.89404296875,-0.052734375,0.33251953125,0.0,0.0,0.0,24.589987789987788,-59.52576312576312,40.33357753357753,-0.16259765625,2.04736328125,0.06982421875,-1.007080078125,0.6561279296875,2.43377685546875,-84.86544566544566,27.438827838827837,-23.09059829059829
11:07.062,0.72021484375,-0.0546875,1.88818359375,-2.288818359375,3.53240966796875,-0.5035400390625,-6.897191697191697,5.847619047619047,30.137728937728937,-1.92041015625,-0.060546875,0.3857421875,0.0,0.0,0.0,26.23931623931624,-59.67570207570208,39.883760683760684,-0.15869140625,2.04931640625,0.07861328125,-1.01470947265625,0.2899169921875,2.22015380859375,-85.16532356532356,24.88986568986569,-19.941880341880342
11:08.135,0.7041015625,-0.044921875,1.91455078125,-1.64031982421875,3.37982177734375,0.3509521484375,-9.446153846153846,4.348229548229548,29.687912087912085,-1.92578125,-0.05517578125,0.52587890625,0.0,0.0,0.0,25.639560439560437,-60.57533577533577,40.63345543345543,-0.1689453125,2.05126953125,0.080078125,-1.2054443359375,0.49591064453125,1.7242431640625,-85.76507936507936,25.78949938949939,-22.94065934065934
11:09.207,0.71875,-0.05078125,1.91650390625,-0.84686279296875,1.99127197265625,0.3814697265625,-5.247863247863248,4.348229548229548,31.487179487179485,-1.8642578125,-0.0498046875,0.5908203125,0.0,0.0,0.0,25.639560439560437,-59.825641025641026,44.98168498168498,-0.1650390625,2.04248046875,0.0703125,-1.5411376953125,1.60980224609375,0.8544921875,-85.46520146520146,26.539194139194137,-24.29010989010989
11:10.426,0.673828125,-0.05859375,1.93359375,-1.5411376953125,1.373291015625,-0.06103515625,-5.847619047619047,4.798046398046398,30.737484737484735,-1.8359375,-0.10595703125,0.43798828125,0.0,0.0,0.0,25.489621489621488,-58.92600732600732,43.33235653235653,-0.1044921875,2.03271484375,0.013671875,10.7574462890625,-70.526123046875,44.921875,-84.56556776556776,23.84029304029304,-21.44126984126984
11:11.645,0.890625,-0.09912109375,1.91064453125,-3.5552978515625,-12.542724609375,-9.0789794921875,-8.396581196581197,3.598534798534798,28.338461538461537,-1.9345703125,-0.09521484375,0.50244140625,0.0,0.0,0.0,25.03980463980464,-59.67570207570208,43.33235653235653,-0.369140625,2.025390625,0.06884765625,2.31170654296875,4.89044189453125,6.46209716796875,-86.06495726495726,26.23931623931624,-20.09181929181929
11:12.766,0.83056640625,0.029296875,1.8701171875,-1.19781494140625,-1.800537109375,-0.14495849609375,-8.846398046398047,1.0495726495726496,27.588766788766787,-1.93212890625,-0.02734375,0.427734375,0.0,0.0,0.0,24.589987789987788,-58.326251526251525,39.28400488400488,-0.2763671875,2.01318359375,0.001953125,-0.48828125,-6.87408447265625,-0.09918212890625,-81.86666666666666,29.388034188034187,-17.39291819291819
11:13.985,0.8701171875,0.03564453125,1.859375,-1.38092041015625,0.43487548828125,-0.0152587890625,-6.747252747252747,2.848840048840049,25.489621489621488,-1.91259765625,-0.04248046875,0.43115234375,0.0,0.0,0.0,23.99023199023199,-59.67570207570208,38.084493284493284,-0.38818359375,2.00927734375,-0.013671875,-0.9307861328125,0.8392333984375,1.6021728515625,-82.46642246642246,29.388034188034187,-22.94065934065934
11:14.960,0.85302734375,0.02734375,1.86328125,-0.99945068359375,0.93841552734375,0.335693359375,-7.347008547008547,2.249084249084249,28.03858363858364,-1.91015625,-0.04443359375,0.42041015625,0.0,0.0,0.0,23.39047619047619,-59.825641025641026,37.934554334554335,-0.3779296875,2.0166015625,-0.01611328125,-0.80108642578125,0.7171630859375,1.7852783203125,-83.66593406593407,28.338461538461537,-22.19096459096459
11:15.935,0.83984375,0.02587890625,1.884765625,-0.42724609375,0.80108642578125,-0.091552734375,-7.197069597069596,2.848840048840049,25.78949938949939,-1.93408203125,-0.0625,0.39892578125,0.0,0.0,0.0,24.88986568986569,-60.275457875457874,37.18485958485958,-0.376953125,2.00830078125,-0.01904296875,-1.12152099609375,0.823974609375,1.5869140625,-83.06617826617827,29.238095238095237,-22.04102564102564
11:16.959,0.853515625,0.03662109375,1.8642578125,-1.2054443359375,-0.37384033203125,-0.244140625,-9.895970695970696,2.399023199023199,28.188522588522588,-1.92431640625,-0.068359375,0.4140625,0.0,0.0,0.0,24.14017094017094,-60.57533577533577,38.53431013431013,-0.38818359375,2.01025390625,-0.01611328125,-0.63323974609375,0.98419189453125,1.495361328125,-82.01660561660562,28.188522588522588,-23.39047619047619
11:18.032,0.84619140625,0.02490234375,1.8671875,-1.312255859375,0.732421875,0.02288818359375,-8.246642246642246,3.1487179487179486,22.79072039072039,-1.93115234375,-0.05078125,0.3974609375,0.0,0.0,0.0,23.690354090354088,-60.425396825396824,38.68424908424908,-0.37646484375,2.01220703125,-0.02587890625,-0.98419189453125,0.701904296875,1.91497802734375,-82.91623931623931,28.03858363858364,-22.94065934065934
11:19.250,0.837890625,0.02734375,1.8759765625,-1.3275146484375,1.129150390625,0.22125244140625,-7.347008547008547,0.7496947496947497,28.338461538461537,-1.89794921875,-0.048828125,0.39697265625,0.0,0.0,0.0,24.88986568986569,-60.275457875457874,37.934554334554335,-0.3828125,2.0107421875,-0.02490234375,-0.823974609375,0.579833984375,1.89208984375,-82.76630036630036,29.238095238095237,-22.04102564102564
11:20.225,0.8525390625,0.0341796875,1.85986328125,-1.4190673828125,0.244140625,0.11444091796875,-7.646886446886446,1.9492063492063492,23.690354090354088,-1.91845703125,-0.0595703125,0.3974609375,0.0,0.0,0.0,23.39047619047619,-60.275457875457874,37.48473748473749,-0.384765625,2.0166015625,-0.02783203125,-1.07574462890625,0.93841552734375,1.6021728515625,-82.76630036630036,29.987789987789988,-23.39047619047619
11:21.493,0.85595703125,0.03076171875,1.8681640625,-1.190185546875,1.434326171875,0.08392333984375,-8.546520146520146,2.399023199023199,29.987789987789988,-1.93701171875,-0.0615234375,0.41015625,0.0,0.0,0.0,24.739926739926737,-60.425396825396824,35.985347985347985,-0.37060546875,2.00732421875,-0.02001953125,-0.9613037109375,0.84686279296875,2.03704833984375,-82.16654456654456,27.588766788766787,-23.99023199023199
11:22.419,0.8427734375,0.0234375,1.87890625,-1.28936767578125,1.0833740234375,0.29754638671875,-6.897191697191697,2.548962148962149,24.589987789987788,-1.92431640625,-0.06396484375,0.38671875,0.0,0.0,0.0,24.589987789987788,-60.275457875457874,36.435164835164834,-0.38671875,2.00244140625,-0.02294921875,-1.1444091796875,0.48828125,1.80816650390625,-82.01660561660562,28.188522588522588,-22.34090354090354
11:23.540,0.8486328125,0.03564453125,1.87548828125,-1.46484375,1.4495849609375,0.37384033203125,-9.296214896214895,2.848840048840049,27.13894993894994,-1.91943359375,-0.0615234375,0.3837890625,0.0,0.0,0.0,23.99023199023199,-60.425396825396824,37.03492063492063,-0.3759765625,2.0205078125,-0.01611328125,-0.89263916015625,0.701904296875,1.64031982421875,-83.21611721611721,29.088156288156288,-23.24053724053724
11:24.418,0.83642578125,0.0263671875,1.8720703125,-1.30462646484375,1.01470947265625,-0.0762939453125,-7.347008547008547,1.9492063492063492,22.64078144078144,-1.91943359375,-0.0615234375,0.3837890625,0.0,0.0,0.0,24.589987789987788,-58.026373626373626,36.88498168498168,-0.38427734375,2.0126953125,-0.0322265625,-1.09100341796875,0.84686279296875,1.434326171875,-83.21611721611721,28.638339438339436,-23.24053724053724
11:25.441,0.83642578125,0.03125,1.8837890625,-1.44195556640625,-0.0762939453125,0.22125244140625,-7.796825396825397,2.0991452991452992,28.93821733821734,-1.91796875,-0.0615234375,0.41064453125,0.0,0.0,0.0,23.690354090354088,-59.67570207570208,38.38437118437118,-0.38427734375,2.0126953125,-0.0322265625,-1.01470947265625,0.8544921875,1.54876708984375,-82.01660561660562,28.93821733821734,-22.04102564102564
11:26.417,0.8447265625,0.02294921875,1.861328125,-1.068115234375,1.41143798828125,0.14495849609375,-7.946764346764346,2.548962148962149,29.088156288156288,-1.9365234375,-0.04443359375,0.376953125,0.0,0.0,0.0,24.589987789987788,-60.275457875457874,37.48473748473749,-0.384765625,2.0107421875,-0.03173828125,-1.0223388671875,0.8544921875,1.46484375,-82.76630036630036,28.488400488400487,-22.04102564102564
11:27.391,0.8681640625,0.021484375,1.87060546875,-0.79345703125,1.8310546875,0.274658203125,-8.996336996336996,1.9492063492063492,27.438827838827837,-1.92333984375,-0.0322265625,0.35986328125,0.0,0.0,0.0,23.690354090354088,-60.425396825396824,36.285225885225884,-0.384765625,2.0107421875,-0.03173828125,-1.2359619140625,0.83160400390625,1.40380859375,-81.86666666666666,28.638339438339436,-22.94065934065934
11:28.317,0.87890625,0.03076171875,1.85107421875,-0.9765625,3.66973876953125,0.67138671875,-8.846398046398047,2.0991452991452992,28.93821733821734,-1.92138671875,-0.04296875,0.3720703125,0.0,0.0,0.0,23.690354090354088,-60.425396825396824,36.285225885225884,-0.37744140625,2.00634765625,-0.01708984375,-1.2359619140625,0.83160400390625,1.40380859375,-83.66593406593407,29.088156288156288,-20.841514041514042
11:29.244,0.8876953125,0.01708984375,1.849609375,-1.13677978515625,1.068115234375,0.3509521484375,-8.846398046398047,1.6493284493284492,29.987789987789988,-1.92822265625,-0.0703125,0.3291015625,0.0,0.0,0.0,22.79072039072039,-60.57533577533577,36.88498168498168,-0.3798828125,2.021484375,-0.0185546875,-1.03759765625,0.6561279296875,1.5869140625,-83.21611721611721,29.088156288156288,-22.19096459096459
11:30.267,0.87158203125,0.01416015625,1.84619140625,-1.5106201171875,0.885009765625,0.09918212890625,-7.646886446886446,1.1995115995115995,26.389255189255188,-1.94189453125,-0.05419921875,0.35107421875,0.0,0.0,0.0,24.14017094017094,-60.57533577533577,36.435164835164834,-0.38037109375,2.01318359375,-0.0302734375,-0.93841552734375,0.69427490234375,1.54876708984375,-81.41684981684982,27.588766788766787,-22.64078144078144
11:31.242,0.8896484375,0.02294921875,1.85498046875,-1.5106201171875,1.24359130859375,0.213623046875,-7.646886446886446,1.4993894993894994,27.738705738705736,-1.943359375,-0.06591796875,0.32666015625,0.0,0.0,0.0,24.14017094017094,-60.57533577533577,36.435164835164834,-0.3779296875,2.0048828125,-0.0361328125,-0.90789794921875,0.87738037109375,1.922607421875,-82.46642246642246,29.088156288156288,-21.89108669108669
11:32.364,0.8798828125,0.01611328125,1.84619140625,-1.495361328125,-0.93841552734375,0.274658203125,-6.747252747252747,1.3494505494505493,28.188522588522588,-1.943359375,-0.0576171875,0.36328125,0.0,0.0,0.0,24.14017094017094,-59.07594627594627,37.18485958485958,-0.3798828125,2.01611328125,-0.02490234375,-0.90789794921875,0.87738037109375,1.922607421875,-83.21611721611721,29.088156288156288,-22.19096459096459
11:33.290,0.8759765625,0.015625,1.853515625,-1.3427734375,0.3204345703125,-0.0152587890625,-8.246642246642246,2.399023199023199,28.188522588522588,-1.9306640625,-0.0634765625,0.34033203125,0.0,0.0,0.0,24.739926739926737,-59.975579975579976,38.084493284493284,-0.3759765625,2.01025390625,-0.025390625,-0.67901611328125,0.93841552734375,1.495361328125,-83.21611721611721,28.338461538461537,-23.24053724053724
11:34.557,0.88818359375,0.01953125,1.84130859375,-1.44195556640625,1.30462646484375,0.40435791015625,-9.296214896214895,2.399023199023199,29.537973137973136,-1.9365234375,-0.06884765625,0.36865234375,0.0,0.0,0.0,25.03980463980464,-60.72527472527472,37.33479853479853,-0.38232421875,2.01025390625,-0.02783203125,-1.007080078125,1.10626220703125,1.16729736328125,-83.06617826617827,29.537973137973136,-23.09059829059829
11:35.484,0.86083984375,0.013671875,1.86962890625,-1.07574462890625,1.8768310546875,0.7171630859375,-7.496947496947497,2.848840048840049,28.488400488400487,-1.9365234375,-0.06884765625,0.36865234375,0.0,0.0,0.0,22.94065934065934,-60.425396825396824,37.03492063492063,-0.3720703125,2.02685546875,-0.02978515625,-1.03759765625,1.03759765625,1.6326904296875,-80.81709401709402,27.438827838827837,-22.34090354090354
11:36.654,0.89453125,0.0283203125,1.84521484375,-1.2054443359375,0.58746337890625,-0.091552734375,-8.546520146520146,0.5997557997557997,27.88864468864469,-1.9423828125,-0.07666015625,0.35693359375,0.0,0.0,0.0,25.18974358974359,-59.825641025641026,36.135286935286935,-0.38134765625,2.0078125,-0.03955078125,-0.90789794921875,0.66375732421875,1.64794921875,-84.11575091575091,27.438827838827837,-22.34090354090354
11:37.677,0.8896484375,0.02734375,1.85009765625,-1.16729736328125,1.62506103515625,0.396728515625,-8.396581196581197,0.7496947496947497,28.788278388278385,-1.9306640625,-0.056640625,0.359375,0.0,0.0,0.0,25.489621489621488,-59.975579975579976,36.285225885225884,-0.38232421875,2.01416015625,-0.02783203125,-1.251220703125,0.78582763671875,1.4801025390625,-82.76630036630036,27.438827838827837,-23.39047619047619
11:38.604,0.85693359375,0.0224609375,1.857421875,-1.16729736328125,1.62506103515625,0.396728515625,-7.796825396825397,1.0495726495726496,27.13894993894994,-1.92626953125,-0.06103515625,0.34423828125,0.0,0.0,0.0,24.88986568986569,-59.07594627594627,37.934554334554335,-0.376953125,2.00927734375,-0.02978515625,-0.95367431640625,0.61798095703125,1.6326904296875,-83.06617826617827,27.13894993894994,-22.79072039072039
11:39.725,0.87158203125,0.01806640625,1.85400390625,-1.1138916015625,1.4495849609375,0.02288818359375,-7.646886446886446,1.9492063492063492,28.03858363858364,-1.94677734375,-0.056640625,0.2041015625,0.0,0.0,0.0,24.29010989010989,-61.17509157509157,36.58510378510378,-0.38330078125,2.00830078125,-0.021484375,-1.068115234375,0.69427490234375,1.60980224609375,-83.81587301587301,28.188522588522588,-23.39047619047619
11:40.651,0.90234375,0.02197265625,1.8544921875,-1.1138916015625,1.4495849609375,0.02288818359375,-9.296214896214895,1.3494505494505493,28.188522588522588,-1.9150390625,-0.0439453125,0.494140625,0.0,0.0,0.0,24.88986568986569,-60.275457875457874,34.336019536019535,-0.3681640625,2.01611328125,-0.01953125,-0.93841552734375,0.8544921875,1.44195556640625,-83.96581196581197,29.088156288156288,-22.64078144078144
11:41.919,0.82177734375,0.0068359375,1.869140625,-1.24359130859375,1.1138916015625,0.38909912109375,-7.646886446886446,1.4993894993894994,28.338461538461537,-1.93115234375,-0.03662109375,0.5546875,0.0,0.0,0.0,23.09059829059829,-60.275457875457874,38.98412698412698,-0.2001953125,2.03173828125,-0.09814453125,0.5340576171875,0.396728515625,-2.74658203125,-82.16654456654456,29.388034188034187,-22.64078144078144
11:42.796,0.8095703125,0.015625,1.884765625,-1.8310546875,4.82177734375,-0.06866455078125,-7.646886446886446,2.249084249084249,28.338461538461537,-1.9287109375,-0.009765625,0.5322265625,0.0,0.0,0.0,23.99023199023199,-60.425396825396824,41.533089133089135,-0.43359375,1.9541015625,-0.12255859375,-0.81634521484375,7.04193115234375,5.950927734375,-83.06617826617827,27.13894993894994,-23.39047619047619
11:43.771,0.76806640625,-0.02099609375,1.890625,-4.6539306640625,-0.09918212890625,-3.8299560546875,-6.447374847374848,3.8984126984126983,28.488400488400487,-1.89794921875,-0.11572265625,0.486328125,0.0,0.0,0.0,23.09059829059829,-60.275457875457874,40.63345543345543,-0.056640625,2.03466796875,-0.18896484375,-0.1220703125,4.33349609375,-3.65447998046875,-81.11697191697192,30.137728937728937,-22.94065934065934
11:44.990,0.73681640625,0.015625,1.88232421875,0.823974609375,6.8511962890625,3.53240966796875,-7.646886446886446,3.598534798534798,29.088156288156288,-1.8720703125,-0.04443359375,0.673828125,0.0,0.0,0.0,23.09059829059829,-59.52576312576312,38.98412698412698,-0.423828125,2.0068359375,-0.15673828125,-3.65447998046875,4.1656494140625,-6.3934326171875,-83.66593406593407,25.78949938949939,-26.83907203907204
11:45.867,0.71875,-0.0390625,1.9326171875,0.19073486328125,-2.1209716796875,0.23651123046875,-6.597313797313797,3.598534798534798,29.687912087912085,-1.8359375,-0.1484375,0.5634765625,0.0,0.0,0.0,22.19096459096459,-58.626129426129424,39.13406593406593,-0.5927734375,1.95703125,-0.1318359375,1.373291015625,-4.0283203125,7.8277587890625,-80.36727716727717,30.437606837606836,-23.690354090354088
11:46.842,0.6708984375,-0.017578125,1.9267578125,-2.13623046875,2.4871826171875,-0.885009765625,-8.696459096459096,3.598534798534798,30.737484737484735,-1.875,-0.0302734375,0.5654296875,0.0,0.0,0.0,23.84029304029304,-59.07594627594627,40.33357753357753,-0.52880859375,1.98193359375,-0.0380859375,-2.84576416015625,-0.14495849609375,1.02996826171875,-82.01660561660562,29.987789987789988,-22.79072039072039
11:47.769,0.75927734375,0.013671875,1.91162109375,0.86212158203125,-6.64520263671875,0.29754638671875,-8.546520146520146,3.1487179487179486,28.93821733821734,-1.8935546875,0.06640625,0.548828125,0.0,0.0,0.0,22.04102564102564,-59.52576312576312,40.63345543345543,-0.80712890625,1.88525390625,0.10791015625,-3.875732421875,4.9285888671875,-4.3792724609375,-82.91623931623931,31.936996336996337,-20.54163614163614
11:48.793,0.7158203125,-0.005859375,1.91455078125,-2.29644775390625,-0.18310546875,-1.31988525390625,-8.696459096459096,4.798046398046398,29.388034188034187,-1.8720703125,0.00390625,0.5546875,0.0,0.0,0.0,23.690354090354088,-61.17509157509157,40.48351648351648,-0.47705078125,1.970703125,-0.06689453125,0.25177001953125,-3.4332275390625,5.706787109375,-78.11819291819292,38.83418803418803,-14.544078144078144
11:49.719,0.7158203125,-0.005859375,1.91455078125,-0.8392333984375,1.007080078125,0.40435791015625,-8.546520146520146,3.8984126984126983,28.188522588522588,-1.8515625,-0.01513671875,0.5693359375,0.0,0.0,0.0,24.14017094017094,-58.77606837606837,41.683028083028084,-0.48779296875,1.95654296875,-0.09619140625,0.78582763671875,-3.7689208984375,9.57489013671875,-80.21733821733821,33.58632478632479,-23.39047619047619
11:50.596,0.75146484375,0.00634765625,1.90185546875,-0.8392333984375,1.007080078125,0.40435791015625,-8.996336996336996,3.598534798534798,27.738705738705736,-1.87158203125,-0.06103515625,0.57421875,0.0,0.0,0.0,24.29010989010989,-59.975579975579976,42.28278388278388,-0.599609375,1.984375,-0.078125,-1.04522705078125,-5.07354736328125,9.77325439453125,-81.86666666666666,32.98656898656898,-24.29010989010989
11:51.523,0.72607421875,0.00732421875,1.9140625,-1.495361328125,-0.885009765625,-0.83160400390625,-8.996336996336996,3.598534798534798,27.738705738705736,-1.87841796875,0.025390625,0.56689453125,0.0,0.0,0.0,24.88986568986569,-58.326251526251525,40.63345543345543,-0.50439453125,1.96435546875,-0.0693359375,-0.5645751953125,3.12042236328125,-0.98419189453125,-80.66715506715506,32.386813186813185,-22.64078144078144
11:52.449,0.73876953125,-0.00341796875,1.9228515625,-2.54058837890625,1.6632080078125,-0.7171630859375,-7.496947496947497,4.947985347985348,29.537973137973136,-1.87841796875,0.025390625,0.56689453125,0.0,0.0,0.0,25.18974358974359,-60.275457875457874,42.13284493284493,-0.66748046875,1.9208984375,-0.05712890625,-2.44903564453125,-0.66375732421875,-0.25177001953125,-82.16654456654456,30.437606837606836,-23.24053724053724
11:53.425,0.73388671875,-0.00146484375,1.916015625,-0.49591064453125,0.6103515625,1.15966796875,-7.197069597069596,4.947985347985348,28.488400488400487,-1.890625,-0.048828125,0.56201171875,0.0,0.0,0.0,23.84029304029304,-60.275457875457874,41.08327228327228,-0.66748046875,1.9208984375,-0.05712890625,-0.732421875,0.91552734375,3.1280517578125,-78.56800976800976,34.485958485958484,-21.59120879120879
11:54.301,0.771484375,-0.0068359375,1.8935546875,-1.33514404296875,0.5645751953125,-0.06866455078125,-7.946764346764346,3.2986568986568985,30.437606837606836,-1.875,-0.0498046875,0.59326171875,0.0,0.0,0.0,23.84029304029304,-60.275457875457874,41.08327228327228,-0.69091796875,1.90576171875,-0.04443359375,-0.732421875,0.91552734375,3.1280517578125,-80.51721611721611,33.28644688644688,-22.34090354090354
11:55.228,0.7529296875,-0.0048828125,1.89306640625,-1.31988525390625,0.7781982421875,0.35858154296875,-6.447374847374848,5.997557997557998,27.588766788766787,-1.87939453125,-0.0302734375,0.572265625,0.0,0.0,0.0,23.24053724053724,-59.22588522588522,39.883760683760684,-0.6650390625,1.91259765625,-0.0419921875,-0.66375732421875,0.77056884765625,2.532958984375,-80.21733821733821,33.88620268620269,-21.741147741147742
11:56.154,0.748046875,-0.0087890625,1.884765625,-0.38909912109375,-0.152587890625,-0.2593994140625,-7.496947496947497,3.8984126984126983,30.287667887667887,-1.88427734375,-0.0537109375,0.51318359375,0.0,0.0,0.0,23.99023199023199,-60.425396825396824,41.533089133089135,-0.681640625,1.91259765625,-0.0556640625,-1.4190673828125,0.91552734375,0.79345703125,-80.21733821733821,33.88620268620269,-21.741147741147742
11:57.031,0.7890625,-0.00244140625,1.8896484375,-1.46484375,1.0833740234375,0.06103515625,-6.747252747252747,4.1982905982905985,27.13894993894994,-1.90087890625,-0.02392578125,0.52734375,0.0,0.0,0.0,24.88986568986569,-60.57533577533577,37.18485958485958,-0.68359375,1.9111328125,-0.0693359375,-1.18255615234375,0.78582763671875,1.47247314453125,-80.36727716727717,33.43638583638584,-20.841514041514042
11:57.958,0.77294921875,-0.00732421875,1.865234375,-0.84686279296875,1.52587890625,0.67138671875,-7.796825396825397,2.399023199023199,28.488400488400487,-1.88623046875,-0.0498046875,0.5087890625,0.0,0.0,0.0,23.99023199023199,-59.22588522588522,39.433943833943836,-0.6806640625,1.91748046875,-0.05126953125,-0.93841552734375,0.78582763671875,1.82342529296875,-79.91746031746031,32.386813186813185,-20.841514041514042
11:58.884,0.765625,0.0,1.8955078125,-0.79345703125,1.5106201171875,0.14495849609375,-5.697680097680098,3.4485958485958483,24.44004884004884,-1.91064453125,-0.03857421875,0.4560546875,0.0,0.0,0.0,22.94065934065934,-59.22588522588522,37.33479853479853,-0.68798828125,1.9150390625,-0.0478515625,-1.0833740234375,0.732421875,1.4801025390625,-81.11697191697192,34.186080586080585,-19.49206349206349
11:59.908,0.76904296875,-0.00048828125,1.89453125,-1.41143798828125,1.54876708984375,0.05340576171875,-8.246642246642246,3.4485958485958483,28.93821733821734,-1.90576171875,-0.0341796875,0.53369140625,0.0,0.0,0.0,23.690354090354088,-58.92600732600732,39.433943833943836,-0.6826171875,1.908203125,-0.05810546875,-1.15203857421875,0.84686279296875,2.044677734375,-79.76752136752137,33.58632478632479,-20.69157509157509
12:00.834,0.76708984375,-0.00634765625,1.89404296875,-1.50299072265625,1.9073486328125,0.4119873046875,-7.946764346764346,4.348229548229548,25.639560439560437,-1.89599609375,-0.04736328125,0.568359375,0.0,0.0,0.0,22.49084249084249,-58.92600732600732,38.68424908424908,-0.6884765625,1.9150390625,-0.06201171875,-1.1138916015625,0.79345703125,1.51824951171875,-79.76752136752137,35.08571428571428,-20.39169719169719
12:01.712,0.76708984375,-0.00634765625,1.89404296875,-1.35040283203125,1.28173828125,0.1983642578125,-9.296214896214895,2.0991452991452992,28.93821733821734,-1.884765625,-0.0224609375,0.5703125,0.0,0.0,0.0,23.99023199023199,-60.72527472527472,39.883760683760684,-0.7060546875,1.89990234375,-0.05126953125,-0.81634521484375,0.86212158203125,2.26593017578125,-82.01660561660562,34.635897435897434,-21.44126984126984
12:02.638,0.74462890625,-0.0166015625,1.89404296875,-1.35040283203125,1.28173828125,0.1983642578125,-4.798046398046398,3.2986568986568985,23.99023199023199,-1.8662109375,-0.0537109375,0.55126953125,0.0,0.0,0.0,24.29010989010989,-59.67570207570208,38.68424908424908,-0.68408203125,1.908203125,-0.0556640625,-1.12152099609375,0.7781982421875,1.4190673828125,-79.46764346764347,33.58632478632479,-20.39169719169719
12:03.515,0.76123046875,-0.0068359375,1.8916015625,-1.31988525390625,-0.5645751953125,-0.06103515625,-4.798046398046398,3.2986568986568985,23.99023199023199,-1.892578125,-0.0595703125,0.4560546875,0.0,0.0,0.0,25.03980463980464,-59.67570207570208,38.68424908424908,-0.6826171875,1.91455078125,-0.05517578125,-0.92315673828125,0.75531005859375,1.617431640625,-77.96825396825396,33.28644688644688,-21.741147741147742
12:04.490,0.798828125,-0.0009765625,1.88330078125,-1.01470947265625,0.55694580078125,0.0762939453125,-7.496947496947497,3.4485958485958483,27.88864468864469,-1.892578125,-0.0595703125,0.4560546875,0.0,0.0,0.0,23.690354090354088,-58.176312576312576,39.13406593406593,-0.69189453125,1.9140625,-0.06201171875,-0.52642822265625,0.6866455078125,1.1138916015625,-79.91746031746031,32.98656898656898,-22.94065934065934
12:05.368,0.8271484375,-0.0009765625,1.87890625,-1.47247314453125,1.13677978515625,-0.2593994140625,-7.347008547008547,2.548962148962149,30.137728937728937,-1.9150390625,-0.05859375,0.55029296875,0.0,0.0,0.0,23.84029304029304,-59.52576312576312,38.98412698412698,-0.69189453125,1.9140625,-0.06201171875,-1.24359130859375,0.81634521484375,1.71661376953125,-79.91746031746031,32.98656898656898,-21.59120879120879
12:06.538,0.7763671875,-0.0029296875,1.92041015625,-1.31988525390625,0.4119873046875,-0.28228759765625,-7.946764346764346,3.2986568986568985,28.03858363858364,-1.890625,-0.0078125,0.5986328125,0.0,0.0,0.0,23.24053724053724,-59.67570207570208,40.48351648351648,-0.6982421875,1.91455078125,-0.064453125,-0.91552734375,0.640869140625,1.60980224609375,-79.46764346764347,36.435164835164834,-21.741147741147742
12:07.561,0.748046875,-0.001953125,1.90576171875,-1.07574462890625,1.678466796875,0.3662109375,-7.946764346764346,3.2986568986568985,28.03858363858364,-1.8818359375,-0.0478515625,0.5595703125,0.0,0.0,0.0,23.09059829059829,-60.57533577533577,40.033699633699634,-0.6982421875,1.90771484375,-0.0517578125,-0.58746337890625,0.8392333984375,1.51824951171875,-79.01782661782661,35.68547008547009,-20.69157509157509
12:08.536,0.77099609375,-0.00537109375,1.8984375,-1.30462646484375,1.52587890625,0.244140625,-8.846398046398047,3.1487179487179486,27.88864468864469,-1.87744140625,-0.01416015625,0.55029296875,0.0,0.0,0.0,23.24053724053724,-58.92600732600732,40.18363858363858,-0.69091796875,1.9130859375,-0.0576171875,-0.86212158203125,0.48065185546875,2.00653076171875,-79.01782661782661,33.88620268620269,-21.44126984126984
12:09.415,0.75830078125,-0.00244140625,1.90576171875,-1.1444091796875,1.01470947265625,0.213623046875,-7.946764346764346,4.048351648351648,28.788278388278385,-1.87744140625,-0.01416015625,0.55029296875,0.0,0.0,0.0,23.690354090354088,-60.425396825396824,40.93333333333333,-0.701171875,1.91259765625,0.1376953125,-8.8653564453125,-3.9825439453125,0.0152587890625,-79.46764346764347,34.336019536019535,-21.44126984126984
12:10.486,0.8515625,0.001953125,1.8798828125,-0.6256103515625,-1.68609619140625,0.30517578125,-8.396581196581197,1.9492063492063492,28.788278388278385,-1.85693359375,-0.07861328125,0.69921875,0.0,0.0,0.0,23.39047619047619,-59.825641025641026,41.08327228327228,-0.6552734375,1.93359375,0.126953125,-0.60272216796875,1.47247314453125,5.2337646484375,-79.91746031746031,34.186080586080585,-15.893528693528692
12:11.461,0.791015625,0.0087890625,1.8818359375,-0.79345703125,3.13568115234375,1.06048583984375,-8.696459096459096,2.548962148962149,28.338461538461537,-1.85693359375,-0.07861328125,0.69921875,0.0,0.0,0.0,23.39047619047619,-59.825641025641026,38.98412698412698,-0.68701171875,1.91552734375,0.1845703125,-2.74658203125,0.99945068359375,-3.5247802734375,-82.01660561660562,33.28644688644688,-14.694017094017093
12:12.485,0.712890625,-0.00048828125,1.9169921875,-1.04522705078125,1.678466796875,0.17547607421875,-7.646886446886446,3.598534798534798,28.338461538461537,-1.8818359375,-0.0703125,0.5859375,0.0,0.0,0.0,23.39047619047619,-58.326251526251525,37.18485958485958,-0.71142578125,1.904296875,0.181640625,-1.1138916015625,0.77056884765625,0.4119873046875,-80.81709401709402,33.58632478632479,-15.143833943833943
12:13.509,0.73388671875,-0.0078125,1.91796875,-1.0223388671875,2.105712890625,0.58746337890625,-6.747252747252747,2.848840048840049,28.188522588522588,-1.88330078125,-0.08056640625,0.57861328125,0.0,0.0,0.0,22.94065934065934,-59.67570207570208,37.634676434676436,-0.71630859375,1.904296875,0.18505859375,-1.007080078125,0.83160400390625,1.4190673828125,-80.21733821733821,33.58632478632479,-14.394139194139193
12:14.386,0.71875,-0.001953125,1.91064453125,-1.3427734375,0.52642822265625,-0.244140625,-8.246642246642246,3.4485958485958483,29.537973137973136,-1.89111328125,-0.06298828125,0.56640625,0.0,0.0,0.0,23.39047619047619,-59.07594627594627,37.18485958485958,-0.71630859375,1.904296875,0.18505859375,-1.47247314453125,0.1220703125,3.30352783203125,-80.36727716727717,33.43638583638584,-12.145054945054945
12:15.264,0.72265625,-0.00537109375,1.90478515625,-1.24359130859375,1.77764892578125,0.6256103515625,-8.846398046398047,3.1487179487179486,28.488400488400487,-1.8896484375,-0.05517578125,0.5712890625,0.0,0.0,0.0,23.39047619047619,-58.026373626373626,35.835409035409036,-0.71044921875,1.8984375,0.20458984375,-1.47247314453125,0.1220703125,3.30352783203125,-78.86788766788767,34.186080586080585,-13.194627594627594
12:16.239,0.68212890625,-0.0078125,1.9248046875,-1.0986328125,2.12860107421875,0.38909912109375,-6.447374847374848,2.0991452991452992,29.537973137973136,-1.89599609375,-0.04443359375,0.54833984375,0.0,0.0,0.0,23.39047619047619,-58.026373626373626,35.835409035409036,-0.7041015625,1.90966796875,0.17919921875,-1.36566162109375,1.02996826171875,1.312255859375,-78.86788766788767,34.186080586080585,-13.194627594627594
12:17.116,0.67626953125,-0.0087890625,1.9287109375,-1.0833740234375,1.4801025390625,0.37384033203125,-7.946764346764346,3.598534798534798,28.788278388278385,-1.88916015625,-0.08056640625,0.57958984375,0.0,0.0,0.0,23.690354090354088,-57.42661782661782,38.084493284493284,-0.69580078125,1.9091796875,0.1953125,-0.823974609375,1.007080078125,1.50299072265625,-81.26691086691086,32.536752136752135,-13.344566544566543
12:18.043,0.65771484375,-0.01171875,1.9365234375,-1.52587890625,2.5787353515625,0.8392333984375,-8.546520146520146,3.4485958485958483,28.488400488400487,-1.87451171875,-0.04296875,0.6005859375,0.0,0.0,0.0,24.14017094017094,-60.57533577533577,37.934554334554335,-0.68798828125,1.91845703125,0.1806640625,-1.51824951171875,0.6866455078125,0.93841552734375,-79.76752136752137,35.08571428571428,-12.594871794871795
12:18.920,0.6552734375,-0.01953125,1.9404296875,-1.2054443359375,0.91552734375,-0.05340576171875,-8.696459096459096,5.097924297924298,28.03858363858364,-1.86669921875,-0.05859375,0.5654296875,0.0,0.0,0.0,22.34090354090354,-58.326251526251525,37.48473748473749,-0.69677734375,1.91357421875,0.1767578125,-1.1444091796875,0.762939453125,1.50299072265625,-80.21733821733821,33.88620268620269,-13.344566544566543
12:19.798,0.64794921875,-0.0009765625,1.93505859375,-0.92315673828125,1.33514404296875,0.1678466796875,-7.347008547008547,4.798046398046398,29.088156288156288,-1.86962890625,-0.0654296875,0.5478515625,0.0,0.0,0.0,23.39047619047619,-60.57533577533577,36.88498168498168,-0.69482421875,1.91357421875,0.1796875,-1.15203857421875,0.63323974609375,1.77001953125,-79.76752136752137,35.38559218559219,-13.644444444444444
12:20.675,0.64794921875,-0.0009765625,1.93505859375,-0.90789794921875,0.7476806640625,0.17547607421875,-7.197069597069596,4.947985347985348,28.93821733821734,-1.88916015625,-0.06005859375,0.57763671875,0.0,0.0,0.0,22.79072039072039,-58.326251526251525,38.234432234432234,-0.6865234375,1.9208984375,0.1865234375,-1.190185546875,0.5645751953125,1.46484375,-79.61758241758241,34.186080586080585,-14.544078144078144
12:21.601,0.5771484375,-0.005859375,1.9853515625,-0.90789794921875,0.7476806640625,0.17547607421875,-7.197069597069596,3.8984126984126983,28.188522588522588,-1.8740234375,-0.06298828125,0.55908203125,0.0,0.0,0.0,23.99023199023199,-59.975579975579976,37.33479853479853,-0.689453125,1.9111328125,0.17626953125,-1.068115234375,0.66375732421875,1.57928466796875,-80.36727716727717,32.98656898656898,-10.795604395604395
12:22.479,0.650390625,-0.01171875,1.9375,-1.28173828125,1.24359130859375,0.0457763671875,-7.197069597069596,3.8984126984126983,28.188522588522588,-1.8740234375,-0.06298828125,0.55908203125,0.0,0.0,0.0,23.09059829059829,-60.275457875457874,37.48473748473749,-0.69091796875,1.91015625,0.16943359375,-1.4801025390625,0.81634521484375,0.946044921875,-79.91746031746031,32.98656898656898,-13.794383394383393
12:23.356,0.64404296875,-0.04052734375,1.9169921875,-0.31280517578125,2.2125244140625,1.495361328125,-7.347008547008547,4.348229548229548,29.388034188034187,-1.8486328125,-0.04296875,0.6513671875,0.0,0.0,0.0,24.29010989010989,-57.12673992673992,39.883760683760684,-0.69091796875,1.91015625,0.16943359375,-1.4801025390625,0.81634521484375,0.946044921875,-78.86788766788767,36.285225885225884,-14.544078144078144
12:24.234,0.630859375,-0.02392578125,1.9453125,-0.70953369140625,0.7171630859375,0.25177001953125,-6.747252747252747,3.8984126984126983,29.238095238095237,-1.8779296875,-0.05908203125,0.56591796875,0.0,0.0,0.0,24.29010989010989,-57.12673992673992,39.883760683760684,-0.6865234375,1.91796875,0.18212890625,-0.91552734375,0.7171630859375,2.2125244140625,-79.31770451770451,33.43638583638584,-13.794383394383393
12:25.160,0.6611328125,-0.04052734375,1.88427734375,-1.93023681640625,-0.06866455078125,-0.48065185546875,-9.296214896214895,4.947985347985348,28.488400488400487,-1.865234375,-0.05712890625,0.57470703125,0.0,0.0,0.0,22.34090354090354,-59.07594627594627,38.53431013431013,-0.68359375,1.9189453125,0.1728515625,-0.83160400390625,0.701904296875,1.9989013671875,-79.31770451770451,33.43638583638584,-13.794383394383393
12:26.038,0.60546875,-0.029296875,1.94384765625,-1.38092041015625,1.2054443359375,0.19073486328125,-6.897191697191697,5.097924297924298,28.788278388278385,-1.86083984375,-0.0458984375,0.57373046875,0.0,0.0,0.0,23.39047619047619,-58.77606837606837,37.18485958485958,-0.6826171875,1.904296875,0.17626953125,-1.2969970703125,0.67901611328125,1.8768310546875,-80.21733821733821,34.336019536019535,-14.094261294261294
12:26.964,0.60498046875,-0.02197265625,1.9638671875,-1.39617919921875,0.06866455078125,-0.2899169921875,-8.246642246642246,5.697680097680098,28.488400488400487,-1.88525390625,-0.06103515625,0.57177734375,0.0,0.0,0.0,22.34090354090354,-60.275457875457874,38.234432234432234,-0.67919921875,1.91845703125,0.1826171875,-1.0986328125,0.55694580078125,1.8157958984375,-78.71794871794872,33.88620268620269,-14.394139194139193
12:27.939,0.626953125,-0.00341796875,1.95703125,-1.7852783203125,-0.4425048828125,-0.54931640625,-8.546520146520146,5.997557997557998,29.987789987789988,-1.9052734375,-0.064453125,0.5146484375,0.0,0.0,0.0,22.79072039072039,-58.77606837606837,37.18485958485958,-0.69140625,1.9111328125,0.1904296875,-1.06048583984375,0.8544921875,2.51007080078125,-81.56678876678876,35.38559218559219,-13.344566544566543
12:28.816,0.609375,-0.01220703125,1.95361328125,-1.220703125,-0.00762939453125,-0.20599365234375,-8.546520146520146,5.697680097680098,28.93821733821734,-1.900390625,-0.056640625,0.5712890625,0.0,0.0,0.0,22.49084249084249,-58.626129426129424,35.985347985347985,-0.67626953125,1.91796875,0.17626953125,-1.47247314453125,0.5340576171875,2.349853515625,-80.66715506715506,33.43638583638584,-15.893528693528692
12:29.694,0.609375,-0.01220703125,1.95361328125,-1.2054443359375,1.51824951171875,0.091552734375,-7.796825396825397,5.697680097680098,27.88864468864469,-1.88623046875,-0.05712890625,0.56787109375,0.0,0.0,0.0,22.19096459096459,-58.92600732600732,38.084493284493284,-0.68115234375,1.916015625,0.16943359375,-0.95367431640625,0.61798095703125,1.6021728515625,-79.76752136752137,33.88620268620269,-14.094261294261294
12:30.669,0.6181640625,-0.0126953125,1.9462890625,-1.25885009765625,1.86920166015625,0.701904296875,-5.997557997557998,5.997557997557998,29.537973137973136,-1.86669921875,-0.0458984375,0.57958984375,0.0,0.0,0.0,22.04102564102564,-59.825641025641026,37.48473748473749,-0.67529296875,1.91796875,0.17919921875,-1.3580322265625,0.823974609375,1.16729736328125,-80.81709401709402,36.135286935286935,-13.044688644688645
12:31.546,0.60009765625,-0.017578125,1.94189453125,-1.25885009765625,1.86920166015625,0.701904296875,-5.997557997557998,5.997557997557998,29.537973137973136,-1.8857421875,-0.046875,0.57373046875,0.0,0.0,0.0,22.04102564102564,-58.026373626373626,36.135286935286935,-0.6943359375,1.91748046875,0.19287109375,-1.38092041015625,0.4730224609375,2.31170654296875,-79.91746031746031,34.78583638583638,-14.244200244200243
12:32.473,0.59228515625,-0.015625,1.93408203125,0.2288818359375,0.26702880859375,-0.00762939453125,-8.546520146520146,4.947985347985348,29.537973137973136,-1.8857421875,-0.046875,0.57373046875,0.0,0.0,0.0,23.39047619047619,-59.825641025641026,36.88498168498168,-0.69482421875,1.91455078125,0.1845703125,-1.42669677734375,0.92315673828125,0.701904296875,-79.91746031746031,32.98656898656898,-13.794383394383393
12:33.399,0.59619140625,-0.01220703125,1.951171875,-1.220703125,4.1656494140625,1.678466796875,-7.496947496947497,5.997557997557998,29.987789987789988,-1.83056640625,-0.056640625,0.60498046875,0.0,0.0,0.0,22.34090354090354,-58.77606837606837,37.18485958485958,-0.68896484375,1.9169921875,0.18798828125,-0.91552734375,0.9002685546875,1.28173828125,-79.76752136752137,33.58632478632479,-15.143833943833943
12:34.375,0.6044921875,-0.01171875,1.94873046875,-1.3885498046875,0.8392333984375,0.0,-8.546520146520146,7.347008547008547,26.23931623931624,-1.85693359375,-0.05810546875,0.5380859375,0.0,0.0,0.0,23.24053724053724,-58.92600732600732,37.33479853479853,-0.68896484375,1.9169921875,0.18798828125,-1.007080078125,0.90789794921875,1.56402587890625,-80.21733821733821,33.88620268620269,-13.344566544566543
12:35.252,0.59765625,-0.00537109375,1.95556640625,-1.5106201171875,2.532958984375,-0.274658203125,-8.396581196581197,6.147496947496947,26.98901098901099,-1.857421875,-0.064453125,0.546875,0.0,0.0,0.0,23.24053724053724,-58.92600732600732,37.33479853479853,-0.697265625,1.91259765625,0.16943359375,-1.007080078125,0.90789794921875,1.56402587890625,-80.81709401709402,35.08571428571428,-14.394139194139193
12:36.178,0.591796875,-0.01025390625,1.953125,-1.01470947265625,1.7242431640625,0.3204345703125,-7.796825396825397,5.997557997557998,27.88864468864469,-1.88037109375,-0.06640625,0.53857421875,0.0,0.0,0.0,23.690354090354088,-59.67570207570208,39.433943833943836,-0.6923828125,1.90771484375,0.18408203125,-0.9918212890625,0.87738037109375,1.4190673828125,-80.81709401709402,35.08571428571428,-14.394139194139193
12:37.055,0.591796875,-0.02392578125,1.95751953125,-1.21307373046875,0.75531005859375,0.3662109375,-7.946764346764346,5.397802197802197,28.788278388278385,-1.85693359375,-0.05908203125,0.54248046875,0.0,0.0,0.0,23.24053724053724,-59.975579975579976,38.084493284493284,-0.697265625,1.91015625,0.1875,-0.95367431640625,1.15966796875,2.166748046875,-79.46764346764347,33.88620268620269,-13.044688644688645
12:37.933,0.56494140625,-0.01904296875,1.974609375,-1.36566162109375,3.02886962890625,1.15203857421875,-8.696459096459096,7.646886446886446,25.93943833943834,-1.8544921875,-0.07421875,0.5966796875,0.0,0.0,0.0,23.39047619047619,-59.825641025641026,37.48473748473749,-0.7021484375,1.9111328125,0.1826171875,-1.27410888671875,0.90789794921875,1.01470947265625,-81.26691086691086,33.88620268620269,-13.344566544566543
12:38.859,0.57763671875,-0.013671875,1.962890625,-1.47247314453125,1.2969970703125,0.5035400390625,-6.897191697191697,4.798046398046398,30.137728937728937,-1.85888671875,-0.0625,0.59228515625,0.0,0.0,0.0,24.88986568986569,-59.52576312576312,38.98412698412698,-0.71630859375,1.908203125,0.1865234375,-0.42724609375,0.02288818359375,1.77001953125,-80.21733821733821,33.58632478632479,-14.094261294261294
12:39.883,0.537109375,-0.03173828125,1.97021484375,-0.4730224609375,28.8543701171875,2.3651123046875,-5.547741147741148,5.847619047619047,25.33968253968254,-1.86328125,-0.0693359375,0.546875,0.0,0.0,0.0,22.49084249084249,-58.92600732600732,37.634676434676436,-0.7021484375,1.90478515625,0.18408203125,-1.0528564453125,0.80108642578125,1.6632080078125,-82.31648351648352,34.336019536019535,-14.094261294261294
12:40.858,0.541015625,-0.009765625,1.95751953125,-1.03759765625,0.8392333984375,0.16021728515625,-7.946764346764346,5.847619047619047,29.088156288156288,-1.8779296875,-0.0615234375,0.58349609375,0.0,0.0,0.0,22.34090354090354,-59.52576312576312,37.48473748473749,-0.71240234375,1.91455078125,0.189453125,-1.22833251953125,0.99945068359375,1.312255859375,-80.51721611721611,34.635897435897434,-13.644444444444444
12:41.784,0.56103515625,-0.0078125,1.9658203125,-1.4801025390625,1.18255615234375,0.20599365234375,-10.495726495726496,7.946764346764346,23.690354090354088,-1.89794921875,-0.05810546875,0.54541015625,0.0,0.0,0.0,24.589987789987788,-58.77606837606837,37.934554334554335,-0.69140625,1.9091796875,0.1845703125,-1.6937255859375,1.30462646484375,1.3275146484375,-79.01782661782661,35.68547008547009,-12.594871794871795
12:42.760,0.5390625,-0.01513671875,1.96728515625,-1.24359130859375,1.8463134765625,0.29754638671875,-6.447374847374848,4.498168498168498,29.987789987789988,-1.87158203125,-0.07763671875,0.59423828125,0.0,0.0,0.0,22.34090354090354,-59.825641025641026,35.835409035409036,-0.6982421875,1.90869140625,0.1826171875,-1.10626220703125,0.80108642578125,1.21307373046875,-80.21733821733821,33.88620268620269,-14.394139194139193
12:43.734,0.5390625,-0.01513671875,1.96728515625,-1.4801025390625,1.45721435546875,0.19073486328125,-7.796825396825397,7.047130647130647,25.18974358974359,-1.8828125,-0.08251953125,0.5478515625,0.0,0.0,0.0,22.79072039072039,-59.825641025641026,37.18485958485958,-0.708984375,1.90966796875,0.1943359375,-0.9613037109375,1.24359130859375,1.24359130859375,-80.36727716727717,33.73626373626374,-13.194627594627594
12:44.612,0.5537109375,-0.01806640625,1.96728515625,-1.4801025390625,1.45721435546875,0.19073486328125,-7.946764346764346,4.348229548229548,30.137728937728937,-1.888671875,-0.0791015625,0.57958984375,0.0,0.0,0.0,22.34090354090354,-59.825641025641026,36.135286935286935,-0.69970703125,1.9033203125,0.1767578125,-1.03759765625,0.8087158203125,1.7242431640625,-81.56678876678876,32.836630036630034,-12.294993894993894
12:45.538,0.54541015625,-0.0107421875,1.97509765625,-1.25885009765625,1.220703125,0.1373291015625,-7.946764346764346,4.348229548229548,30.137728937728937,-1.87548828125,-0.06982421875,0.58544921875,0.0,0.0,0.0,22.04102564102564,-59.825641025641026,37.18485958485958,-0.701171875,1.91455078125,0.208984375,-1.068115234375,0.95367431640625,1.51824951171875,-79.76752136752137,34.635897435897434,-12.294993894993894
12:46.415,0.5419921875,-0.01416015625,1.9638671875,-1.38092041015625,0.90789794921875,0.19073486328125,-6.897191697191697,7.646886446886446,23.99023199023199,-1.87548828125,-0.06982421875,0.58544921875,0.0,0.0,0.0,23.39047619047619,-58.026373626373626,36.135286935286935,-0.701171875,1.91455078125,0.208984375,-1.129150390625,0.4119873046875,1.5716552734375,-79.46764346764347,33.28644688644688,-13.644444444444444
12:47.390,0.56982421875,-0.00830078125,1.97021484375,-0.0762939453125,-1.42669677734375,-0.26702880859375,-7.946764346764346,6.147496947496947,29.388034188034187,-1.8828125,-0.0751953125,0.56640625,0.0,0.0,0.0,22.34090354090354,-59.07594627594627,37.934554334554335,-0.69921875,1.89306640625,0.1865234375,-1.1444091796875,0.762939453125,1.44195556640625,-80.51721611721611,34.336019536019535,-15.143833943833943
12:48.317,0.564453125,-0.01171875,1.9658203125,-1.2664794921875,1.86920166015625,0.26702880859375,-9.446153846153846,5.097924297924298,30.137728937728937,-1.87451171875,-0.0751953125,0.568359375,0.0,0.0,0.0,22.94065934065934,-59.22588522588522,37.634676434676436,-0.7060546875,1.90576171875,0.18505859375,-1.15966796875,0.55694580078125,1.7852783203125,-81.11697191697192,35.23565323565323,-13.194627594627594
12:49.340,0.53466796875,-0.0146484375,1.9755859375,-1.2969970703125,2.58636474609375,0.69427490234375,-8.696459096459096,5.847619047619047,28.338461538461537,-1.88134765625,-0.06298828125,0.5673828125,0.0,0.0,0.0,24.589987789987788,-59.825641025641026,35.835409035409036,-0.71435546875,1.91162109375,0.17822265625,-1.15966796875,0.55694580078125,1.7852783203125,-81.41684981684982,34.485958485958484,-13.194627594627594
12:50.218,0.541015625,-0.01708984375,1.9609375,-1.220703125,0.80108642578125,-0.06866455078125,-8.546520146520146,5.997557997557998,28.93821733821734,-1.888671875,-0.072265625,0.54541015625,0.0,0.0,0.0,24.589987789987788,-59.825641025641026,35.835409035409036,-0.71484375,1.900390625,0.18701171875,-1.007080078125,0.79345703125,1.42669677734375,-80.81709401709402,34.336019536019535,-13.344566544566543
12:51.242,0.56396484375,-0.01708984375,1.96240234375,-0.9765625,3.387451171875,0.457763671875,-7.496947496947497,5.247863247863248,30.287667887667887,-1.8720703125,-0.078125,0.5322265625,0.0,0.0,0.0,23.39047619047619,-59.825641025641026,36.88498168498168,-0.70947265625,1.9033203125,0.1748046875,-0.885009765625,1.01470947265625,1.861572265625,-80.81709401709402,34.336019536019535,-13.344566544566543
12:52.168,0.46337890625,-0.01904296875,1.9912109375,-1.373291015625,1.46484375,0.2593994140625,-8.246642246642246,5.997557997557998,28.488400488400487,-1.88330078125,-0.076171875,0.57421875,0.0,0.0,0.0,22.79072039072039,-59.52576312576312,36.135286935286935,-0.71044921875,1.9033203125,0.18994140625,-0.579833984375,0.91552734375,1.93023681640625,-80.51721611721611,34.336019536019535,-13.644444444444444
12:53.094,0.4638671875,-0.005859375,1.9892578125,-1.50299072265625,0.7171630859375,-0.11444091796875,-7.946764346764346,6.147496947496947,28.338461538461537,-1.88720703125,-0.06298828125,0.55322265625,0.0,0.0,0.0,24.589987789987788,-58.77606837606837,38.234432234432234,-0.7216796875,1.89892578125,0.1943359375,-1.21307373046875,0.91552734375,1.65557861328125,-81.41684981684982,33.43638583638584,-14.244200244200243
12:54.020,0.46533203125,-0.0087890625,1.984375,-1.44195556640625,1.82342529296875,0.3204345703125,-8.246642246642246,6.747252747252747,29.987789987789988,-1.8955078125,-0.09716796875,0.5078125,0.0,0.0,0.0,23.24053724053724,-59.22588522588522,37.03492063492063,-0.712890625,1.90380859375,0.1767578125,-0.99945068359375,1.03759765625,1.983642578125,-80.36727716727717,33.73626373626374,-12.744810744810744
12:55.044,0.45068359375,-0.01123046875,1.98388671875,-1.5106201171875,1.4190673828125,0.1220703125,-8.396581196581197,6.447374847374848,29.088156288156288,-1.88037109375,-0.072265625,0.56005859375,0.0,0.0,0.0,22.94065934065934,-60.425396825396824,37.03492063492063,-0.7109375,1.9091796875,0.193359375,-0.9002685546875,0.67138671875,1.5411376953125,-79.76752136752137,35.08571428571428,-14.094261294261294
12:56.019,0.4521484375,-0.02880859375,1.99609375,-0.9918212890625,0.6256103515625,0.38909912109375,-9.446153846153846,5.847619047619047,29.088156288156288,-1.904296875,-0.0703125,0.57958984375,0.0,0.0,0.0,23.690354090354088,-60.72527472527472,36.285225885225884,-0.72216796875,1.8984375,0.19287109375,-1.15966796875,0.69427490234375,1.312255859375,-79.76752136752137,36.435164835164834,-12.294993894993894
12:56.897,0.45654296875,-0.00634765625,1.98828125,-1.617431640625,2.593994140625,0.9918212890625,-7.796825396825397,7.047130647130647,30.287667887667887,-1.83740234375,-0.0498046875,0.58984375,0.0,0.0,0.0,22.79072039072039,-59.52576312576312,36.435164835164834,-0.71484375,1.908203125,0.19140625,-0.95367431640625,0.83160400390625,1.5106201171875,-80.21733821733821,35.38559218559219,-14.094261294261294
12:57.872,0.4443359375,-0.00732421875,2.00439453125,-1.1749267578125,-0.3662109375,-0.69427490234375,-8.546520146520146,7.796825396825397,28.488400488400487,-1.9208984375,-0.05712890625,0.56591796875,0.0,0.0,0.0,23.39047619047619,-59.825641025641026,36.435164835164834,-0.728515625,1.89892578125,0.19091796875,-1.33514404296875,0.3662109375,2.25067138671875,-80.21733821733821,35.08571428571428,-14.394139194139193
12:58.847,0.43896484375,-0.00830078125,1.98828125,-1.3580322265625,1.3275146484375,0.0,-7.946764346764346,6.447374847374848,30.137728937728937,-1.88427734375,-0.076171875,0.56298828125,0.0,0.0,0.0,23.84029304029304,-59.52576312576312,36.435164835164834,-0.7197265625,1.89208984375,0.1865234375,-0.946044921875,0.70953369140625,1.617431640625,-79.76752136752137,36.135286935286935,-14.394139194139193
