time,hand_accelerometer_x,hand_accelerometer_y,hand_accelerometer_z,hand_gyroscope_x,hand_gyroscope_y,hand_gyroscope_z,hand_magnetometer_x,hand_magnetometer_y,hand_magnetometer_z,ankle_accelerometer_x,ankle_accelerometer_y,ankle_accelerometer_z,ankle_gyroscope_x,ankle_gyroscope_y,ankle_gyroscope_z,ankle_magnetometer_x,ankle_magnetometer_y,ankle_magnetometer_z,chest_accelerometer_x,chest_accelerometer_y,chest_accelerometer_z,chest_gyroscope_x,chest_gyroscope_y,chest_gyroscope_z,chest_magnetometer_x,chest_magnetometer_y,chest_magnetometer_z
18:35.129,0.49853515625,0.51220703125,1.93408203125,1.9683837890625,1.96075439453125,22.98736572265625,-11.995115995115995,6.297435897435897,26.539194139194137,-1.875,-0.03076171875,0.6591796875,3.6163330078125,1.89971923828125,5.65338134765625,20.69157509157509,-65.22344322344323,31.337240537240536,-0.27001953125,2.0322265625,0.072265625,-1.5106201171875,-0.09918212890625,2.89154052734375,-82.76630036630036,22.04102564102564,-18.59242979242979
18:36.152,0.34033203125,0.39013671875,1.97021484375,-2.35748291015625,8.1939697265625,-30.5023193359375,-9.596092796092796,6.747252747252747,24.739926739926737,-1.87841796875,-0.02490234375,0.5546875,-1.9989013671875,2.20489501953125,2.3956298828125,19.941880341880342,-64.77362637362637,33.13650793650793,-0.2490234375,2.03271484375,0.0859375,-0.885009765625,0.61798095703125,3.173828125,-82.76630036630036,22.04102564102564,-18.59242979242979
18:37.030,0.05712890625,0.05029296875,2.01416015625,-0.8544921875,5.22613525390625,12.68768310546875,-11.695238095238095,10.945543345543346,22.49084249084249,-1.873046875,-0.04638671875,0.5478515625,-2.3345947265625,2.2430419921875,-0.90789794921875,22.49084249084249,-64.02393162393162,31.787057387057384,-0.177734375,2.04833984375,0.07763671875,-2.31170654296875,0.6866455078125,0.34332275390625,-82.01660561660562,22.34090354090354,-17.54285714285714
18:38.005,0.32373046875,0.24755859375,1.68115234375,-4.31060791015625,-52.947998046875,-17.34161376953125,-12.894749694749695,7.197069597069596,20.24175824175824,-1.90966796875,-0.091796875,0.52783203125,-5.6304931640625,1.33514404296875,0.1068115234375,24.14017094017094,-66.87277167277168,32.236874236874236,-0.21630859375,2.04296875,0.07958984375,-0.86212158203125,0.244140625,1.12152099609375,-81.11697191697192,21.14139194139194,-17.692796092796094
18:38.834,0.3671875,0.1181640625,2.095703125,-1.38092041015625,15.8233642578125,-25.27618408203125,-9.746031746031745,11.095482295482295,25.93943833943834,-1.86474609375,-0.005859375,0.58251953125,-3.63922119140625,-4.5623779296875,-8.01849365234375,22.49084249084249,-66.27301587301586,33.13650793650793,-0.20458984375,2.0458984375,0.09521484375,-1.42669677734375,-0.9307861328125,2.227783203125,-82.76630036630036,19.791941391941393,-18.892307692307693
18:39.955,0.32763671875,0.46142578125,2.01806640625,-4.92095947265625,-14.38140869140625,43.52569580078125,-13.344566544566543,4.348229548229548,18.892307692307693,-1.8671875,-0.0927734375,0.57861328125,1.12152099609375,0.3814697265625,1.2969970703125,23.39047619047619,-64.92356532356533,35.08571428571428,-0.185546875,2.0439453125,0.0849609375,-0.5950927734375,0.22125244140625,1.89971923828125,-79.91746031746031,20.69157509157509,-19.49206349206349
18:40.832,0.16943359375,0.1962890625,2.0498046875,2.83050537109375,-10.07080078125,-25.3448486328125,-9.296214896214895,9.146275946275946,25.18974358974359,-1.875,-0.17333984375,0.57861328125,-2.40325927734375,2.777099609375,2.532958984375,23.24053724053724,-66.57289377289376,34.485958485958484,-0.185546875,2.0458984375,0.09716796875,-1.16729736328125,0.8087158203125,2.25830078125,-82.31648351648352,20.24175824175824,-17.842735042735043
18:41.710,0.16943359375,0.1962890625,2.0498046875,3.9825439453125,19.1497802734375,36.76605224609375,-13.644444444444444,8.996336996336996,19.19218559218559,-1.8662109375,-0.06396484375,0.5791015625,-6.3934326171875,-3.265380859375,1.19781494140625,23.84029304029304,-65.37338217338217,34.78583638583638,-0.193359375,2.05322265625,0.0869140625,-0.640869140625,1.3427734375,1.89971923828125,-82.16654456654456,19.34212454212454,-17.992673992673993
18:42.588,0.2265625,0.23095703125,2.04248046875,3.9825439453125,19.1497802734375,36.76605224609375,-12.294993894993894,10.795604395604395,24.29010989010989,-1.880859375,-0.15771484375,0.5126953125,-2.84576416015625,2.7313232421875,2.410888671875,22.79072039072039,-65.37338217338217,34.78583638583638,-0.21484375,2.03564453125,0.10302734375,-0.1068115234375,-0.1068115234375,4.35638427734375,-80.81709401709402,19.791941391941393,-18.29255189255189
18:43.416,0.318359375,0.19287109375,1.9931640625,-0.55694580078125,-3.13568115234375,-25.42877197265625,-12.294993894993894,10.795604395604395,24.29010989010989,-1.861328125,-0.142578125,0.56494140625,3.56292724609375,-4.17327880859375,-3.5858154296875,23.84029304029304,-64.17387057387057,35.08571428571428,-0.150390625,2.05322265625,0.08984375,-1.068115234375,-1.67083740234375,6.64520263671875,-80.36727716727717,21.89108669108669,-17.692796092796094
18:44.343,0.291015625,0.224609375,2.041015625,5.2947998046875,15.380859375,40.771484375,-13.944322344322345,5.847619047619047,20.54163614163614,-1.861328125,-0.142578125,0.56494140625,-4.84466552734375,0.06103515625,2.47955322265625,23.99023199023199,-65.82319902319902,33.88620268620269,-0.150390625,2.05322265625,0.08984375,-0.6103515625,1.373291015625,2.73895263671875,-83.21611721611721,18.892307692307693,-17.992673992673993
18:45.220,0.265625,0.25732421875,1.97900390625,-1.82342529296875,2.02178955078125,-37.9638671875,-13.494505494505495,8.096703296703296,23.39047619047619,-1.90673828125,-0.13818359375,0.5927734375,-4.84466552734375,0.06103515625,2.47955322265625,23.99023199023199,-65.82319902319902,33.88620268620269,-0.1875,2.0478515625,0.08544921875,-0.6103515625,1.373291015625,2.73895263671875,-83.21611721611721,18.892307692307693,-17.992673992673993
18:46.049,0.19482421875,0.18115234375,2.0361328125,0.7476806640625,13.54217529296875,27.25982666015625,-13.794383394383393,9.596092796092796,20.69157509157509,-1.78271484375,-0.12548828125,0.72119140625,-8.392333984375,-4.66156005859375,-0.7781982421875,24.739926739926737,-65.22344322344323,34.93577533577533,-0.2587890625,2.0322265625,0.07080078125,-1.007080078125,1.8157958984375,-2.410888671875,-82.01660561660562,19.791941391941393,-17.54285714285714
18:46.926,0.0498046875,0.21435546875,2.03125,-1.4190673828125,-0.9918212890625,-40.62652587890625,-10.795604395604395,9.296214896214895,23.99023199023199,-1.869140625,-0.14794921875,0.603515625,2.5787353515625,7.24029541015625,2.25067138671875,22.34090354090354,-65.67326007326007,38.234432234432234,-0.19580078125,2.03857421875,0.0751953125,-1.27410888671875,0.52642822265625,2.3345947265625,-81.11697191697192,20.39169719169719,-19.49206349206349
18:47.804,0.1513671875,0.13671875,2.04150390625,0.823974609375,5.5084228515625,33.6761474609375,-11.995115995115995,10.945543345543346,24.14017094017094,-1.857421875,-0.1181640625,0.6396484375,-2.25067138671875,-1.67083740234375,0.091552734375,22.49084249084249,-66.27301587301586,34.93577533577533,-0.2158203125,2.03955078125,0.0693359375,-0.90789794921875,0.8544921875,1.31988525390625,-82.01660561660562,22.04102564102564,-18.29255189255189
18:48.632,0.1513671875,0.13671875,2.04150390625,-5.76019287109375,-4.669189453125,-28.57208251953125,-11.545299145299145,8.246642246642246,22.64078144078144,-1.841796875,-0.1142578125,0.6318359375,0.3509521484375,1.59454345703125,-0.09918212890625,23.09059829059829,-65.67326007326007,34.78583638583638,-0.21533203125,2.04150390625,0.0947265625,-0.6866455078125,-2.41851806640625,6.53076171875,-79.91746031746031,21.89108669108669,-17.692796092796094
18:49.608,0.49658203125,0.20849609375,1.982421875,-5.76019287109375,-4.669189453125,-28.57208251953125,-12.894749694749695,5.847619047619047,21.89108669108669,-1.8740234375,-0.10888671875,0.623046875,-4.425048828125,-1.51824951171875,1.16729736328125,19.791941391941393,-66.12307692307692,36.135286935286935,-0.1875,2.04931640625,0.0830078125,-1.46484375,0.1220703125,2.25067138671875,-81.56678876678876,20.54163614163614,-17.54285714285714
18:50.534,0.34423828125,0.271484375,1.9775390625,3.57818603515625,6.4849853515625,43.4112548828125,-11.695238095238095,7.796825396825397,23.84029304029304,-1.86181640625,-0.1015625,0.6689453125,-5.279541015625,-3.631591796875,2.227783203125,24.14017094017094,-67.47252747252747,34.336019536019535,-0.18408203125,2.04541015625,0.09521484375,-1.0528564453125,-1.5716552734375,3.662109375,-81.41684981684982,21.89108669108669,-17.39291819291819
18:51.411,0.361328125,0.29736328125,1.9833984375,0.5950927734375,-5.859375,-23.26202392578125,-11.695238095238095,7.796825396825397,23.84029304029304,-1.841796875,-0.119140625,0.61669921875,-4.730224609375,-2.78472900390625,0.518798828125,22.79072039072039,-64.17387057387057,34.78583638583638,-0.1845703125,2.03759765625,0.07958984375,-1.7852783203125,1.0986328125,-1.45721435546875,-82.46642246642246,20.39169719169719,-17.39291819291819
18:52.338,0.07177734375,0.19873046875,2.0966796875,1.42669677734375,6.14166259765625,37.2161865234375,-11.995115995115995,7.047130647130647,23.09059829059829,-1.841796875,-0.119140625,0.61669921875,-4.4708251953125,0.91552734375,3.936767578125,23.39047619047619,-66.42295482295482,35.835409035409036,-0.1845703125,2.03759765625,0.07958984375,-1.35040283203125,0.63323974609375,1.1749267578125,-80.66715506715506,19.941880341880342,-19.042246642246642
18:53.215,0.21826171875,0.357421875,2.0283203125,-1.7242431640625,-4.81414794921875,-31.59332275390625,-12.594871794871795,7.197069597069596,20.54163614163614,-1.87646484375,-0.13037109375,0.57080078125,-4.4708251953125,0.91552734375,3.936767578125,23.39047619047619,-66.42295482295482,35.835409035409036,-0.19384765625,2.04443359375,0.09912109375,-1.35040283203125,0.63323974609375,1.1749267578125,-80.66715506715506,19.941880341880342,-19.042246642246642
18:54.044,0.1552734375,0.27197265625,2.015625,-2.61688232421875,-1.2054443359375,37.26959228515625,-11.845177045177044,10.795604395604395,23.99023199023199,-1.84423828125,-0.11279296875,0.59716796875,-2.95257568359375,-1.15203857421875,2.777099609375,23.24053724053724,-64.02393162393162,33.88620268620269,-0.22314453125,2.04443359375,0.068359375,-1.12152099609375,2.43377685546875,-1.36566162109375,-83.06617826617827,20.54163614163614,-19.941880341880342
18:54.921,0.30029296875,0.263671875,2.09765625,-3.5400390625,-19.55413818359375,-41.2445068359375,-13.194627594627594,11.995115995115995,23.39047619047619,-1.83056640625,-0.14697265625,0.59130859375,4.05120849609375,2.0599365234375,-0.8392333984375,23.39047619047619,-66.42295482295482,35.835409035409036,-0.181640625,2.048828125,0.0703125,-1.1749267578125,0.518798828125,2.90679931640625,-81.26691086691086,22.04102564102564,-18.59242979242979
18:55.799,0.1923828125,0.29248046875,2.02783203125,1.25885009765625,5.80596923828125,27.22930908203125,-13.344566544566543,9.746031746031745,23.24053724053724,-1.8779296875,-0.1162109375,0.56005859375,-3.3721923828125,-0.37384033203125,1.495361328125,25.489621489621488,-66.27301587301586,35.985347985347985,-0.2001953125,2.04736328125,0.0859375,-0.54168701171875,1.04522705078125,2.3193359375,-82.91623931623931,21.14139194139194,-17.992673992673993
18:56.628,0.1923828125,0.29248046875,2.02783203125,-2.9144287109375,0.67138671875,-27.8778076171875,-13.194627594627594,10.945543345543346,23.84029304029304,-1.8916015625,-0.16064453125,0.5556640625,-1.922607421875,1.2664794921875,1.190185546875,22.49084249084249,-64.02393162393162,33.88620268620269,-0.19287109375,2.0419921875,0.08447265625,-1.09100341796875,1.708984375,-0.3814697265625,-80.81709401709402,20.54163614163614,-18.892307692307693
18:57.505,0.236328125,0.2744140625,2.01953125,-2.9144287109375,0.67138671875,-27.8778076171875,-11.695238095238095,8.846398046398047,21.741147741147742,-1.89697265625,-0.05712890625,0.58056640625,0.49591064453125,0.4425048828125,0.6561279296875,21.59120879120879,-64.17387057387057,33.28644688644688,-0.20166015625,2.04931640625,0.078125,-1.12152099609375,0.9002685546875,0.48828125,-81.11697191697192,20.69157509157509,-19.791941391941393
18:58.431,0.296875,0.31103515625,1.99658203125,2.61688232421875,6.62994384765625,26.031494140625,-11.695238095238095,8.846398046398047,21.741147741147742,-1.873046875,-0.078125,0.54150390625,-6.38580322265625,1.16729736328125,4.7454833984375,21.89108669108669,-65.22344322344323,34.186080586080585,-0.283203125,2.02978515625,0.0869140625,-1.495361328125,2.7313232421875,-1.0528564453125,-80.66715506715506,20.39169719169719,-17.992673992673993
18:59.309,0.2353515625,0.2822265625,2.02783203125,-2.044677734375,5.18798828125,-23.37646484375,-13.944322344322345,9.746031746031745,22.64078144078144,-1.873046875,-0.078125,0.54150390625,2.9754638671875,-1.3580322265625,-1.86920166015625,22.04102564102564,-63.873992673992674,33.28644688644688,-0.283203125,2.02978515625,0.0869140625,-0.885009765625,0.67901611328125,-0.38909912109375,-84.7155067155067,21.89108669108669,-18.44249084249084
19:00.235,0.20654296875,0.27392578125,2.017578125,0.0762939453125,1.5106201171875,23.32305908203125,-13.644444444444444,8.996336996336996,23.24053724053724,-1.86474609375,-0.05322265625,0.57080078125,2.9754638671875,-1.3580322265625,-1.86920166015625,24.14017094017094,-64.17387057387057,34.336019536019535,-0.23828125,2.03662109375,0.0869140625,-0.885009765625,0.67901611328125,-0.38909912109375,-81.11697191697192,20.69157509157509,-19.49206349206349
19:01.064,0.13623046875,0.3466796875,1.9794921875,-1.64031982421875,4.2572021484375,-26.00860595703125,-13.344566544566543,8.246642246642246,21.29133089133089,-1.85595703125,-0.10009765625,0.6318359375,-3.65447998046875,3.90625,2.17437744140625,24.14017094017094,-64.17387057387057,34.336019536019535,-0.29638671875,2.03369140625,0.08544921875,-1.068115234375,1.48773193359375,1.74713134765625,-81.11697191697192,20.69157509157509,-19.49206349206349
19:01.893,0.19677734375,0.22509765625,2.03857421875,-0.244140625,4.38690185546875,33.47015380859375,-13.494505494505495,9.895970695970696,24.44004884004884,-1.84130859375,-0.10546875,0.59130859375,-0.1068115234375,-0.49591064453125,-0.7781982421875,24.88986568986569,-64.62368742368741,34.78583638583638,-0.2314453125,2.02978515625,0.091796875,-0.16021728515625,-0.244140625,5.33294677734375,-81.26691086691086,22.04102564102564,-17.242979242979242
19:02.868,0.1298828125,0.31787109375,2.01025390625,-1.06048583984375,-1.5411376953125,-44.3878173828125,-13.344566544566543,8.996336996336996,21.59120879120879,-1.87939453125,-0.08349609375,0.533203125,-5.3558349609375,0.030517578125,1.9683837890625,22.79072039072039,-66.42295482295482,34.036141636141636,-0.2314453125,2.04248046875,0.080078125,-0.45013427734375,1.96075439453125,1.36566162109375,-83.66593406593407,21.89108669108669,-17.992673992673993
19:03.843,0.07275390625,-0.17529296875,2.146484375,-1.77764892578125,19.83642578125,-1.10626220703125,-11.395360195360196,13.494505494505495,24.14017094017094,-1.8603515625,-0.10498046875,0.626953125,-3.99017333984375,-0.3204345703125,1.4801025390625,22.49084249084249,-62.97435897435897,32.386813186813185,-0.25048828125,2.03369140625,0.07763671875,-0.81634521484375,0.55694580078125,1.02996826171875,-82.46642246642246,21.44126984126984,-17.992673992673993
19:04.720,0.2919921875,0.32568359375,1.9541015625,0.91552734375,-4.2572021484375,37.1246337890625,-13.644444444444444,7.197069597069596,19.49206349206349,-1.875,-0.0615234375,0.55712890625,-1.861572265625,-2.05230712890625,0.3662109375,23.24053724053724,-65.52332112332113,36.285225885225884,-0.2568359375,2.03515625,0.07763671875,-1.21307373046875,0.63323974609375,1.434326171875,-80.66715506715506,20.69157509157509,-18.44249084249084
19:05.549,0.2919921875,0.32568359375,1.9541015625,0.91552734375,-4.2572021484375,37.1246337890625,-11.395360195360196,14.544078144078144,27.13894993894994,-1.84912109375,-0.09765625,0.61279296875,-2.9449462890625,-0.63323974609375,0.23651123046875,20.24175824175824,-62.074725274725274,31.187301587301587,-0.21484375,2.041015625,0.08056640625,0.2288818359375,0.29754638671875,3.16619873046875,-81.26691086691086,20.54163614163614,-17.54285714285714
19:06.378,0.0859375,0.02001953125,2.01171875,0.46539306640625,-4.69970703125,-25.61187744140625,-11.395360195360196,14.544078144078144,27.13894993894994,-1.84912109375,-0.09765625,0.61279296875,-3.7384033203125,-0.48065185546875,-0.23651123046875,21.44126984126984,-66.27301587301586,34.93577533577533,-0.248046875,2.0390625,0.06982421875,-0.640869140625,2.78472900390625,0.98419189453125,-82.46642246642246,20.39169719169719,-17.692796092796094
19:07.255,0.1396484375,0.23193359375,2.06494140625,1.7242431640625,8.97216796875,34.60693359375,-15.593650793650793,10.195848595848595,20.99145299145299,-1.87841796875,-0.06884765625,0.57080078125,-0.4730224609375,0.11444091796875,-0.14495849609375,21.14139194139194,-60.72527472527472,30.737484737484735,-0.248046875,2.0390625,0.06982421875,-0.946044921875,1.35040283203125,1.94549560546875,-83.06617826617827,21.29133089133089,-18.59242979242979
19:08.181,0.06591796875,0.0712890625,2.0283203125,-0.8087158203125,22.48382568359375,-34.4085693359375,-12.294993894993894,16.49328449328449,22.94065934065934,-1.86474609375,-0.1201171875,0.57568359375,-0.4730224609375,0.11444091796875,-0.14495849609375,21.14139194139194,-60.72527472527472,30.737484737484735,-0.2578125,2.03466796875,0.08447265625,-0.946044921875,1.35040283203125,1.94549560546875,-81.26691086691086,20.24175824175824,-16.49328449328449
19:09.059,0.1640625,0.23095703125,2.02197265625,-0.25177001953125,0.92315673828125,50.71258544921875,-15.443711843711844,11.545299145299145,21.29133089133089,-1.85107421875,-0.123046875,0.5830078125,-2.227783203125,-2.1514892578125,0.09918212890625,22.94065934065934,-66.57289377289376,33.43638583638584,-0.2451171875,2.03662109375,0.0791015625,-0.701904296875,0.57220458984375,1.88446044921875,-81.26691086691086,20.24175824175824,-16.49328449328449
19:09.936,0.052734375,0.255859375,2.0458984375,-1.9683837890625,11.627197265625,-32.7301025390625,-14.843956043956043,7.796825396825397,17.992673992673993,-1.87646484375,-0.091796875,0.5947265625,-2.86102294921875,2.29644775390625,1.46484375,19.34212454212454,-61.47496947496947,28.188522588522588,-0.2412109375,2.04248046875,0.0849609375,-1.617431640625,0.1068115234375,2.532958984375,-81.41684981684982,20.39169719169719,-18.742368742368743
19:10.814,0.12548828125,0.251953125,2.03564453125,-0.48065185546875,0.31280517578125,35.49957275390625,-14.394139194139193,14.394139194139193,22.64078144078144,-1.87890625,-0.10205078125,0.546875,-0.213623046875,-2.98309326171875,-1.2969970703125,23.84029304029304,-66.12307692307692,32.536752136752135,-0.2421875,2.03759765625,0.09130859375,-1.0986328125,0.0,3.60107421875,-82.16654456654456,20.69157509157509,-18.44249084249084
19:11.692,0.12548828125,0.251953125,2.03564453125,-0.09918212890625,-3.95965576171875,-48.6602783203125,-11.245421245421245,10.045909645909646,16.793162393162394,-1.87353515625,-0.09130859375,0.59716796875,-2.0904541015625,0.89263916015625,2.5482177734375,23.99023199023199,-65.82319902319902,33.43638583638584,-0.2265625,2.03759765625,0.09033203125,-1.922607421875,0.946044921875,1.3885498046875,-82.31648351648352,20.54163614163614,-17.54285714285714
19:12.520,0.09619140625,0.232421875,2.01806640625,-0.09918212890625,-3.95965576171875,-48.6602783203125,-11.995115995115995,10.945543345543346,22.79072039072039,-1.87646484375,-0.1064453125,0.58984375,-2.25067138671875,0.83160400390625,0.030517578125,25.18974358974359,-66.42295482295482,33.28644688644688,-0.23388671875,2.0380859375,0.0927734375,-0.457763671875,0.81634521484375,1.56402587890625,-82.01660561660562,22.04102564102564,-19.34212454212454
19:13.495,0.0859375,0.2001953125,2.0390625,-0.3662109375,5.01251220703125,38.4979248046875,-11.995115995115995,10.945543345543346,22.79072039072039,-1.89013671875,-0.05810546875,0.56689453125,-11.90948486328125,3.8604736328125,2.9144287109375,22.49084249084249,-67.32258852258852,33.88620268620269,-0.43310546875,1.998046875,0.083984375,-1.74713134765625,3.4942626953125,-0.52642822265625,-81.26691086691086,21.29133089133089,-19.34212454212454
19:14.324,0.23291015625,0.30908203125,2.02880859375,-1.8157958984375,-0.06866455078125,-32.9132080078125,-14.993894993894994,10.495726495726496,21.89108669108669,-1.89013671875,-0.05810546875,0.56689453125,13.26751708984375,2.471923828125,-5.83648681640625,23.09059829059829,-65.67326007326007,31.487179487179485,-0.43310546875,1.998046875,0.083984375,0.3662109375,-1.5869140625,1.9378662109375,-79.61758241758241,25.78949938949939,-18.742368742368743
19:15.299,0.154296875,0.23876953125,1.99658203125,-1.35040283203125,4.50897216796875,20.80535888671875,-13.494505494505495,10.945543345543346,24.44004884004884,-1.8486328125,-0.11279296875,0.5859375,-15.4876708984375,-0.31280517578125,6.87408447265625,22.79072039072039,-64.92356532356533,36.135286935286935,-0.00927734375,2.0576171875,0.076171875,0.6866455078125,1.96075439453125,1.708984375,-82.01660561660562,19.042246642246642,-20.69157509157509
19:16.225,0.13037109375,0.31982421875,2.02783203125,-0.335693359375,-2.12860107421875,-17.40264892578125,-14.694017094017093,11.845177045177044,21.59120879120879,-1.86865234375,-0.11572265625,0.599609375,-15.4876708984375,-0.31280517578125,6.87408447265625,22.79072039072039,-64.92356532356533,36.135286935286935,-0.45849609375,1.998046875,0.06591796875,0.6866455078125,1.96075439453125,1.708984375,-79.61758241758241,22.19096459096459,-15.293772893772893
19:17.151,0.0986328125,0.2568359375,2.044921875,-1.01470947265625,-0.1983642578125,12.176513671875,-13.494505494505495,10.645665445665445,24.14017094017094,-1.8583984375,-0.06982421875,0.583984375,15.3350830078125,2.166748046875,-5.828857421875,22.04102564102564,-65.67326007326007,31.936996336996337,0.13037109375,2.05126953125,0.109375,-0.885009765625,-3.5400390625,0.6103515625,-79.61758241758241,22.19096459096459,-15.293772893772893
19:17.980,0.17919921875,0.28515625,2.02587890625,-0.84686279296875,5.4168701171875,-12.2528076171875,-15.593650793650793,11.995115995115995,20.69157509157509,-1.830078125,-0.11767578125,0.64990234375,-20.62225341796875,0.67901611328125,9.735107421875,25.489621489621488,-66.57289377289376,36.58510378510378,-0.62548828125,1.96533203125,0.07421875,-0.1068115234375,1.19781494140625,8.056640625,-82.16654456654456,17.54285714285714,-20.841514041514042
19:18.810,0.10888671875,0.1494140625,2.03369140625,-1.251220703125,0.4119873046875,19.09637451171875,-14.244200244200243,10.645665445665445,22.49084249084249,-1.87841796875,-0.080078125,0.62548828125,13.214111328125,2.8076171875,-4.5166015625,20.24175824175824,-67.17264957264958,30.137728937728937,0.03466796875,2.05615234375,0.09228515625,-0.46539306640625,3.70025634765625,-8.9263916015625,-80.21733821733821,26.689133089133087,-14.394139194139193
19:19.735,0.26220703125,0.439453125,1.9912109375,0.885009765625,2.5634765625,-0.8697509765625,-15.293772893772893,9.895970695970696,19.042246642246642,-1.8818359375,-0.06884765625,0.61767578125,-8.61358642578125,-3.84521484375,4.2724609375,22.94065934065934,-66.57289377289376,36.285225885225884,-0.130859375,2.05322265625,0.087890625,0.61798095703125,0.9918212890625,3.7384033203125,-82.91623931623931,18.59242979242979,-17.692796092796094
19:20.613,0.26220703125,0.439453125,1.9912109375,-10.39886474609375,36.52191162109375,12.7105712890625,-7.197069597069596,13.794383394383393,27.13894993894994,-1.86865234375,-0.09326171875,0.5751953125,-2.95257568359375,0.06866455078125,1.73187255859375,23.24053724053724,-65.52332112332113,32.836630036630034,-0.15380859375,2.05029296875,0.09326171875,-1.45721435546875,-0.75531005859375,1.76239013671875,-81.86666666666666,19.34212454212454,-18.44249084249084
19:21.588,-0.86083984375,0.0888671875,1.8310546875,-10.39886474609375,36.52191162109375,12.7105712890625,-13.794383394383393,18.742368742368743,15.893528693528692,-1.87353515625,-0.0654296875,0.5107421875,-4.93621826171875,-1.07574462890625,-0.54931640625,23.24053724053724,-68.07228327228327,33.43638583638584,-0.21044921875,2.0576171875,0.080078125,-1.28936767578125,0.99945068359375,3.22723388671875,-82.76630036630036,20.99145299145299,-18.892307692307693
19:22.416,0.17041015625,0.392578125,1.904296875,-2.38800048828125,14.8468017578125,31.10504150390625,-13.794383394383393,18.742368742368743,15.893528693528692,-1.87353515625,-0.0654296875,0.5107421875,-2.6397705078125,-0.19073486328125,1.07574462890625,23.39047619047619,-65.67326007326007,30.887423687423688,-0.21044921875,2.0576171875,0.080078125,-1.12152099609375,0.274658203125,2.9296875,-81.86666666666666,21.14139194139194,-18.742368742368743
19:23.245,-0.1748046875,0.23974609375,2.04296875,2.32696533203125,1.617431640625,-33.24127197265625,-10.945543345543346,14.244200244200243,26.539194139194137,-1.87890625,-0.10302734375,0.583984375,-2.6397705078125,-0.19073486328125,1.07574462890625,22.79072039072039,-66.12307692307692,32.536752136752135,-0.1728515625,2.04052734375,0.07568359375,-1.12152099609375,0.274658203125,2.9296875,-82.46642246642246,19.941880341880342,-18.742368742368743
19:24.074,-0.02001953125,0.28076171875,2.04541015625,-1.19781494140625,7.8125,38.41400146484375,-14.544078144078144,13.794383394383393,21.741147741147742,-1.89501953125,-0.06494140625,0.54736328125,-4.75311279296875,0.57220458984375,1.04522705078125,22.79072039072039,-66.12307692307692,32.536752136752135,-0.18359375,2.0400390625,0.08544921875,-1.0833740234375,1.1444091796875,1.27410888671875,-82.46642246642246,19.941880341880342,-18.742368742368743
19:24.952,0.15087890625,0.3720703125,2.01171875,2.98309326171875,-9.3231201171875,-48.492431640625,-9.895970695970696,11.695238095238095,25.78949938949939,-1.90087890625,-0.125,0.5380859375,-1.4190673828125,-0.84686279296875,1.1749267578125,23.690354090354088,-66.57289377289376,34.186080586080585,-0.17333984375,2.05322265625,0.07177734375,-1.312255859375,0.518798828125,1.22833251953125,-80.66715506715506,19.64200244200244,-17.992673992673993
19:25.781,0.2939453125,0.3095703125,2.029296875,0.6561279296875,1.434326171875,27.58026123046875,-13.194627594627594,16.343345543345542,24.14017094017094,-1.87548828125,-0.119140625,0.58349609375,-3.6163330078125,-0.32806396484375,0.5950927734375,22.79072039072039,-66.12307692307692,33.28644688644688,-0.18408203125,2.04296875,0.0810546875,-0.6866455078125,0.6866455078125,2.12860107421875,-81.41684981684982,19.64200244200244,-18.44249084249084
19:26.658,0.2939453125,0.3095703125,2.029296875,-2.5634765625,2.23541259765625,-47.8057861328125,-13.794383394383393,10.195848595848595,22.79072039072039,-1.8720703125,-0.06201171875,0.53515625,0.23651123046875,4.06646728515625,0.99945068359375,23.09059829059829,-67.92234432234432,33.73626373626374,-0.2314453125,2.02587890625,0.107421875,-0.54168701171875,-0.06866455078125,8.06427001953125,-81.86666666666666,20.39169719169719,-18.742368742368743
19:27.487,0.0859375,0.38037109375,2.0400390625,-2.5634765625,2.23541259765625,-47.8057861328125,-11.995115995115995,14.843956043956043,23.84029304029304,-1.86328125,-0.07958984375,0.5810546875,-6.3323974609375,-0.1373291015625,0.701904296875,23.99023199023199,-66.57289377289376,32.386813186813185,-0.287109375,2.02978515625,0.09814453125,-1.25885009765625,3.1280517578125,-3.13568115234375,-82.01660561660562,21.59120879120879,-18.59242979242979
19:28.364,0.09619140625,0.244140625,2.01025390625,-0.49591064453125,3.57818603515625,27.2979736328125,-11.995115995115995,14.843956043956043,23.84029304029304,-1.87548828125,-0.10302734375,0.5498046875,-0.640869140625,0.12969970703125,1.5411376953125,22.04102564102564,-67.17264957264958,32.536752136752135,-0.28564453125,2.0361328125,0.1044921875,-0.78582763671875,1.7242431640625,1.52587890625,-83.66593406593407,22.19096459096459,-17.692796092796094
19:29.291,0.103515625,0.18896484375,2.0087890625,-0.95367431640625,-2.90679931640625,-41.473388671875,-12.894749694749695,14.394139194139193,24.29010989010989,-1.87548828125,-0.10302734375,0.5498046875,-0.640869140625,0.12969970703125,1.5411376953125,23.24053724053724,-65.82319902319902,33.13650793650793,-0.28564453125,2.0361328125,0.1044921875,-0.78582763671875,1.7242431640625,1.52587890625,-83.81587301587301,21.29133089133089,-17.242979242979242
19:30.119,0.04248046875,0.30078125,2.0751953125,-0.8697509765625,19.76776123046875,41.92352294921875,-11.695238095238095,10.945543345543346,25.18974358974359,-1.86572265625,-0.078125,0.546875,-5.3863525390625,1.953125,-0.54168701171875,23.24053724053724,-65.82319902319902,33.13650793650793,-0.27587890625,2.033203125,0.08154296875,-0.75531005859375,0.8697509765625,2.50244140625,-83.81587301587301,21.29133089133089,-17.242979242979242
19:30.948,0.130859375,0.4130859375,1.97314453125,-4.4097900390625,-27.99224853515625,-44.25048828125,-12.594871794871795,13.344566544566543,25.639560439560437,-1.87353515625,-0.04833984375,0.544921875,-2.90679931640625,1.70135498046875,3.59344482421875,22.79072039072039,-65.67326007326007,30.137728937728937,-0.23779296875,2.04541015625,0.0947265625,-0.43487548828125,1.54876708984375,0.35858154296875,-81.11697191697192,21.44126984126984,-17.692796092796094
19:31.825,-0.03564453125,-0.15234375,1.94140625,1.74713134765625,1.6326904296875,-23.96392822265625,-7.646886446886446,12.894749694749695,27.438827838827837,-1.84716796875,-0.11669921875,0.533203125,-0.25177001953125,4.180908203125,-1.007080078125,22.94065934065934,-65.52332112332113,32.386813186813185,-0.24072265625,2.04052734375,0.09521484375,-0.030517578125,0.5340576171875,2.23541259765625,-82.16654456654456,19.34212454212454,-19.49206349206349
19:32.654,-0.03564453125,-0.15234375,1.94140625,-3.59344482421875,-0.18310546875,37.109375,-13.344566544566543,8.696459096459096,23.690354090354088,-1.8876953125,-0.08349609375,0.525390625,0.4730224609375,-3.45611572265625,1.27410888671875,23.24053724053724,-66.57289377289376,32.386813186813185,-0.24658203125,2.03662109375,0.08154296875,-0.90789794921875,1.5106201171875,-1.24359130859375,-83.36605616605617,20.24175824175824,-17.54285714285714
19:33.580,0.27783203125,0.26318359375,1.90185546875,-3.59344482421875,-0.18310546875,37.109375,-9.746031746031745,11.845177045177044,28.03858363858364,-1.8740234375,-0.07763671875,0.51806640625,-2.17437744140625,-0.9918212890625,-3.7994384765625,21.29133089133089,-66.87277167277168,30.887423687423688,-0.23388671875,2.0400390625,0.09521484375,-0.98419189453125,-0.25177001953125,2.73895263671875,-82.91623931623931,21.89108669108669,-17.39291819291819
19:34.458,0.36328125,0.08154296875,2.048828125,-0.95367431640625,-3.0364990234375,-35.85052490234375,-9.746031746031745,11.845177045177044,28.03858363858364,-1.88232421875,-0.1181640625,0.51953125,-2.41851806640625,-0.2593994140625,3.37982177734375,21.89108669108669,-66.27301587301586,32.386813186813185,-0.232421875,2.03759765625,0.0859375,-0.8087158203125,1.31988525390625,0.79345703125,-82.31648351648352,19.791941391941393,-17.54285714285714
19:35.433,0.2626953125,0.33251953125,2.04541015625,-2.84576416015625,-25.12359619140625,43.54095458984375,-11.995115995115995,6.747252747252747,23.39047619047619,-1.88671875,-0.16943359375,0.5458984375,-3.10516357421875,-2.3956298828125,2.81524658203125,21.59120879120879,-65.67326007326007,32.98656898656898,-0.24951171875,2.041015625,0.08349609375,-1.65557861328125,0.38909912109375,1.5869140625,-82.46642246642246,20.69157509157509,-19.042246642246642
19:36.310,0.3671875,0.193359375,1.81103515625,-13.23699951171875,-20.85113525390625,-39.49737548828125,-10.495726495726496,13.644444444444444,27.438827838827837,-1.88671875,-0.16943359375,0.5458984375,-3.10516357421875,-2.3956298828125,2.81524658203125,23.24053724053724,-65.22344322344323,32.836630036630034,-0.24951171875,2.041015625,0.08349609375,-0.4119873046875,0.80108642578125,2.8076171875,-82.76630036630036,21.59120879120879,-17.842735042735043
19:37.188,0.0146484375,0.28857421875,2.03564453125,1.31988525390625,13.34381103515625,35.5224609375,-13.344566544566543,8.696459096459096,25.639560439560437,-1.89599609375,-0.080078125,0.50732421875,-0.55694580078125,3.44085693359375,-0.45013427734375,23.24053724053724,-65.22344322344323,32.836630036630034,-0.234375,2.03955078125,0.0888671875,-0.4119873046875,0.80108642578125,2.8076171875,-82.76630036630036,21.59120879120879,-17.842735042735043
19:38.017,0.26171875,0.259765625,1.98046875,-1.62506103515625,-6.2255859375,-48.797607421875,-13.344566544566543,10.795604395604395,25.639560439560437,-1.8779296875,-0.14013671875,0.5185546875,-3.79180908203125,1.068115234375,3.05938720703125,22.34090354090354,-66.12307692307692,31.487179487179485,-0.27587890625,2.0361328125,0.09326171875,-1.434326171875,0.396728515625,2.83050537109375,-81.41684981684982,20.69157509157509,-18.44249084249084
19:38.894,0.2998046875,0.30615234375,2.021484375,-0.2593994140625,-1.6937255859375,44.830322265625,-12.744810744810744,11.395360195360196,24.14017094017094,-1.8447265625,-0.1064453125,0.62841796875,-6.21795654296875,-1.76239013671875,0.86212158203125,23.690354090354088,-65.82319902319902,30.287667887667887,-0.2763671875,2.03564453125,0.08642578125,-0.57220458984375,0.66375732421875,1.6326904296875,-81.41684981684982,22.94065934065934,-17.692796092796094
19:39.723,0.28564453125,0.328125,1.998046875,-4.425048828125,-1.861572265625,-51.56707763671875,-14.544078144078144,9.146275946275946,22.79072039072039,-1.88134765625,-0.09912109375,0.61328125,0.38909912109375,3.07464599609375,1.52587890625,23.09059829059829,-64.17387057387057,33.73626373626374,-0.22265625,2.041015625,0.08447265625,-1.983642578125,0.64849853515625,1.373291015625,-82.46642246642246,20.69157509157509,-18.742368742368743
19:40.552,0.28564453125,0.328125,1.998046875,-4.425048828125,-1.861572265625,-51.56707763671875,-15.293772893772893,9.146275946275946,23.09059829059829,-1.8779296875,-0.12646484375,0.62451171875,-4.60052490234375,0.45013427734375,1.99127197265625,22.94065934065934,-63.724053724053725,32.386813186813185,-0.255859375,2.03662109375,0.083984375,-0.40435791015625,-0.1068115234375,4.119873046875,-82.01660561660562,20.99145299145299,-18.892307692307693
19:41.380,0.3271484375,0.3056640625,1.9892578125,2.28118896484375,6.5460205078125,40.008544921875,-15.293772893772893,9.146275946275946,23.09059829059829,-1.8779296875,-0.12646484375,0.62451171875,-0.6561279296875,-0.823974609375,0.640869140625,21.29133089133089,-66.87277167277168,33.73626373626374,-0.255859375,2.03662109375,0.083984375,-2.288818359375,-0.67138671875,1.57928466796875,-81.26691086691086,20.99145299145299,-18.59242979242979
19:42.209,0.30322265625,0.36181640625,1.85546875,7.049560546875,29.54864501953125,-49.56817626953125,-13.194627594627594,9.596092796092796,23.09059829059829,-1.83447265625,-0.09716796875,0.66259765625,-0.6561279296875,-0.823974609375,0.640869140625,21.29133089133089,-66.87277167277168,33.73626373626374,-0.22412109375,2.0380859375,0.0849609375,-2.288818359375,-0.67138671875,1.57928466796875,-81.26691086691086,20.99145299145299,-18.59242979242979
19:43.038,0.11279296875,0.33203125,2.02978515625,-0.75531005859375,3.33404541015625,36.6973876953125,-13.794383394383393,7.796825396825397,25.18974358974359,-1.85009765625,-0.107421875,0.6953125,-10.18524169921875,-2.74658203125,2.7618408203125,22.79072039072039,-67.17264957264958,35.38559218559219,-0.287109375,2.0341796875,0.08984375,-0.86212158203125,1.74713134765625,-0.43487548828125,-82.01660561660562,20.24175824175824,-19.34212454212454
19:43.915,0.1533203125,0.18408203125,2.04736328125,-2.593994140625,-4.180908203125,-40.10009765625,-14.244200244200243,11.995115995115995,22.49084249084249,-1.837890625,-0.1328125,0.69775390625,-1.2969970703125,-0.70953369140625,0.05340576171875,24.29010989010989,-65.22344322344323,36.285225885225884,-0.20166015625,2.04736328125,0.095703125,-1.15203857421875,-1.0833740234375,5.18035888671875,-80.81709401709402,21.29133089133089,-17.242979242979242
19:44.744,0.0986328125,0.32080078125,2.01513671875,-2.62451171875,11.199951171875,35.8428955078125,-15.443711843711844,12.145054945054945,16.043467643467643,-1.986328125,-0.130859375,0.23486328125,-1.4190673828125,-0.7476806640625,0.12969970703125,21.59120879120879,-63.12429792429792,34.036141636141636,-0.15380859375,2.04248046875,0.08154296875,-0.72479248046875,4.40216064453125,-4.58526611328125,-83.66593406593407,19.64200244200244,-18.742368742368743
19:45.573,0.0986328125,0.32080078125,2.01513671875,-2.62451171875,11.199951171875,35.8428955078125,-10.195848595848595,13.644444444444444,26.98901098901099,-1.92822265625,-0.0224609375,0.48583984375,9.43756103515625,3.35693359375,-1.25885009765625,20.54163614163614,-68.22222222222221,26.98901098901099,-0.181640625,2.04443359375,0.0791015625,-0.9918212890625,-1.678466796875,5.91278076171875,-82.16654456654456,20.39169719169719,-17.992673992673993
19:46.548,0.15478515625,0.34912109375,2.03369140625,3.51715087890625,-25.177001953125,-39.28375244140625,-17.242979242979242,7.946764346764346,18.142612942612942,-1.87939453125,-0.03125,0.55517578125,-1.19781494140625,3.1890869140625,-0.14495849609375,21.59120879120879,-64.17387057387057,28.788278388278385,-0.1669921875,2.05419921875,0.09033203125,-1.5411376953125,0.60272216796875,1.007080078125,-82.31648351648352,21.59120879120879,-18.59242979242979
19:47.474,0.22021484375,0.22900390625,2.02099609375,6.3629150390625,3.56292724609375,37.78839111328125,-16.043467643467643,9.296214896214895,19.19218559218559,-1.8984375,-0.0078125,0.40478515625,-5.31005859375,-1.02996826171875,4.547119140625,23.690354090354088,-66.57289377289376,31.787057387057384,-0.18017578125,2.04736328125,0.12841796875,-0.6866455078125,1.0986328125,1.4801025390625,-81.26691086691086,20.24175824175824,-16.193406593406593
19:48.352,-0.01123046875,0.35546875,2.00341796875,2.57110595703125,4.21905517578125,-57.6324462890625,-16.043467643467643,9.296214896214895,19.19218559218559,-1.8984375,-0.0078125,0.40478515625,1.50299072265625,2.37274169921875,-1.3885498046875,22.04102564102564,-63.873992673992674,26.23931623931624,-0.18017578125,2.04736328125,0.12841796875,-1.1138916015625,0.732421875,1.77764892578125,-82.31648351648352,21.29133089133089,-16.49328449328449
19:49.278,0.1611328125,0.10595703125,2.07177734375,-1.94549560546875,-12.77923583984375,25.1312255859375,-12.294993894993894,13.344566544566543,17.54285714285714,-1.91796875,0.09375,0.412109375,-7.415771484375,5.767822265625,6.38580322265625,23.09059829059829,-64.92356532356533,33.73626373626374,-0.13671875,2.04443359375,0.12744140625,0.274658203125,4.7607421875,1.1749267578125,-82.01660561660562,19.791941391941393,-20.39169719169719
19:50.253,0.1083984375,0.29443359375,2.0166015625,-2.716064453125,4.730224609375,-10.16998291015625,-16.49328449328449,4.048351648351648,20.841514041514042,-1.91796875,0.09375,0.412109375,-7.415771484375,5.767822265625,6.38580322265625,19.34212454212454,-60.425396825396824,28.638339438339436,-0.13671875,2.04443359375,0.12744140625,0.274658203125,4.7607421875,1.1749267578125,-84.11575091575091,18.44249084249084,-18.59242979242979
19:51.082,0.2509765625,0.12451171875,2.00048828125,-0.579833984375,4.26483154296875,5.584716796875,-9.895970695970696,11.995115995115995,20.09181929181929,-1.91015625,0.12158203125,0.45849609375,-1.80816650390625,-9.3841552734375,-2.7923583984375,19.34212454212454,-60.425396825396824,28.638339438339436,-0.14990234375,2.05615234375,0.06103515625,-1.64794921875,2.25067138671875,-1.3885498046875,-84.11575091575091,18.44249084249084,-18.59242979242979
19:51.959,0.1396484375,0.5341796875,1.9501953125,-0.8087158203125,3.82232666015625,-1.068115234375,-16.49328449328449,5.097924297924298,18.44249084249084,-1.90283203125,0.212890625,0.4921875,-9.04083251953125,2.8076171875,-0.1678466796875,18.892307692307693,-65.52332112332113,30.287667887667887,-0.00244140625,2.09033203125,-0.03173828125,-4.058837890625,10.1318359375,-5.88226318359375,-80.51721611721611,19.791941391941393,-18.892307692307693
19:52.837,0.22412109375,0.0361328125,1.95947265625,-0.28228759765625,-6.64520263671875,33.69903564453125,-10.345787545787545,13.044688644688645,18.29255189255189,-1.94287109375,0.23828125,0.6142578125,-18.157958984375,2.4261474609375,0.46539306640625,18.742368742368743,-58.77606837606837,30.887423687423688,-0.2578125,2.01904296875,0.02099609375,5.71441650390625,-1.64794921875,3.448486328125,-83.21611721611721,19.34212454212454,-19.042246642246642
19:53.763,0.25146484375,0.6962890625,1.9716796875,-1.5869140625,-8.49151611328125,-17.15087890625,-15.443711843711844,2.998778998778999,20.841514041514042,-1.97216796875,0.12451171875,0.58447265625,4.5013427734375,2.81524658203125,0.06866455078125,19.49206349206349,-66.87277167277168,32.536752136752135,-0.15771484375,2.03759765625,-0.015625,-2.25067138671875,-0.67901611328125,-3.10516357421875,-81.41684981684982,22.49084249084249,-20.54163614163614
19:54.787,0.4189453125,0.38330078125,2.0283203125,-0.5645751953125,-27.3590087890625,49.0570068359375,-14.694017094017093,11.095482295482295,25.03980463980464,-1.92138671875,0.0185546875,0.5712890625,-17.3797607421875,1.1444091796875,-0.78582763671875,18.142612942612942,-66.27301587301586,28.638339438339436,-0.30810546875,2.01806640625,-0.07763671875,-3.143310546875,-3.0059814453125,10.894775390625,-81.11697191697192,21.14139194139194,-19.791941391941393
19:55.615,0.4189453125,0.38330078125,2.0283203125,-0.5645751953125,-27.3590087890625,49.0570068359375,-16.043467643467643,7.197069597069596,21.89108669108669,-1.91162109375,0.06884765625,0.4736328125,1.68609619140625,6.38580322265625,0.1068115234375,15.143833943833943,-65.67326007326007,26.689133089133087,-0.396484375,2.0185546875,0.03955078125,-1.27410888671875,-1.312255859375,3.25775146484375,-81.11697191697192,22.49084249084249,-19.042246642246642
19:56.542,0.29443359375,0.2353515625,2.02294921875,-1.89208984375,1.77001953125,-1.27410888671875,-17.39291819291819,5.997557997557998,19.34212454212454,-1.89697265625,0.1474609375,0.49072265625,-8.636474609375,-6.5460205078125,-0.37384033203125,19.49206349206349,-66.42295482295482,26.689133089133087,-0.26513671875,2.02978515625,0.0185546875,-1.16729736328125,1.129150390625,-0.762939453125,-82.01660561660562,23.09059829059829,-18.59242979242979
19:57.419,0.06201171875,0.59033203125,2.009765625,-0.152587890625,2.44903564453125,-1.35040283203125,-17.39291819291819,5.997557997557998,19.34212454212454,-1.89697265625,0.1474609375,0.49072265625,-2.96783447265625,-0.84686279296875,0.83160400390625,17.992673992673993,-65.67326007326007,29.088156288156288,-0.30078125,2.0244140625,0.00732421875,-1.01470947265625,0.58746337890625,1.74713134765625,-81.56678876678876,23.09059829059829,-17.842735042735043
19:58.345,0.2822265625,0.24609375,2.00830078125,0.81634521484375,-1.46484375,25.99334716796875,-13.944322344322345,14.694017094017093,22.19096459096459,-1.916015625,0.0810546875,0.529296875,3.6773681640625,9.521484375,0.41961669921875,18.742368742368743,-66.87277167277168,31.187301587301587,-0.30078125,2.0244140625,0.00732421875,-0.8697509765625,-2.593994140625,8.53729248046875,-82.01660561660562,20.99145299145299,-17.242979242979242
19:59.174,0.10791015625,0.44091796875,1.970703125,0.30517578125,-5.7830810546875,-33.477783203125,-14.843956043956043,6.297435897435897,20.69157509157509,-1.84765625,-0.009765625,0.64013671875,3.6773681640625,9.521484375,0.41961669921875,18.742368742368743,-66.87277167277168,31.187301587301587,-0.3369140625,2.02685546875,0.0302734375,-0.8697509765625,-2.593994140625,8.53729248046875,-82.01660561660562,22.79072039072039,-20.69157509157509
20:00.100,0.3486328125,0.51708984375,1.96826171875,1.40380859375,-8.44573974609375,25.23040771484375,-15.443711843711844,11.095482295482295,20.841514041514042,-1.94189453125,0.0986328125,0.46240234375,-18.33343505859375,5.62286376953125,-1.74713134765625,19.64200244200244,-65.52332112332113,31.037362637362637,-0.56298828125,2.0625,0.06787109375,-2.7313232421875,41.84722900390625,3.5247802734375,-82.01660561660562,22.79072039072039,-20.69157509157509
20:00.929,0.14013671875,0.48583984375,2.05517578125,0.5950927734375,18.02825927734375,-42.5262451171875,-15.893528693528692,8.096703296703296,22.49084249084249,-1.87548828125,-0.1103515625,0.4833984375,-0.6561279296875,0.54931640625,2.84576416015625,20.69157509157509,-67.32258852258852,30.737484737484735,-0.27294921875,2.03857421875,0.0380859375,1.068115234375,2.25067138671875,10.223388671875,-81.11697191697192,25.03980463980464,-16.343345543345542
20:01.758,0.1923828125,0.1748046875,1.9990234375,-0.67138671875,2.8533935546875,22.45330810546875,-13.794383394383393,11.395360195360196,24.739926739926737,-1.8486328125,-0.05859375,0.51953125,-5.950927734375,-2.1514892578125,2.13623046875,22.19096459096459,-65.52332112332113,29.687912087912085,-0.36181640625,2.0224609375,-0.02880859375,-2.05230712890625,4.57000732421875,-11.02447509765625,-81.11697191697192,22.19096459096459,-18.742368742368743
20:02.587,0.1923828125,0.1748046875,1.9990234375,-0.67138671875,2.8533935546875,22.45330810546875,-17.242979242979242,8.246642246642246,19.49206349206349,-1.900390625,-0.04150390625,0.58251953125,-5.8441162109375,0.06103515625,2.09808349609375,21.29133089133089,-65.67326007326007,30.137728937728937,-0.02880859375,2.0537109375,-0.01220703125,-0.1983642578125,2.84576416015625,-5.5084228515625,-81.26691086691086,21.29133089133089,-18.892307692307693
20:03.464,0.24072265625,0.31787109375,2.0029296875,-3.082275390625,5.85174560546875,-29.41131591796875,-11.545299145299145,9.296214896214895,28.338461538461537,-1.8740234375,-0.0908203125,0.5400390625,2.044677734375,-0.06103515625,0.08392333984375,20.99145299145299,-66.12307692307692,31.936996336996337,-0.212890625,2.0439453125,0.0,-1.0223388671875,-0.40435791015625,5.5084228515625,-81.41684981684982,18.892307692307693,-22.19096459096459
20:04.439,-0.58251953125,-0.1328125,1.82666015625,16.326904296875,-20.843505859375,-11.322021484375,-11.545299145299145,9.296214896214895,28.338461538461537,-1.87109375,-0.064453125,0.591796875,-3.36456298828125,-2.2430419921875,-2.26593017578125,22.04102564102564,-66.42295482295482,29.388034188034187,-0.13232421875,2.046875,-0.01806640625,-0.1220703125,0.72479248046875,2.99835205078125,-81.26691086691086,20.54163614163614,-19.941880341880342
20:05.366,0.568359375,0.19384765625,1.97021484375,11.5966796875,22.857666015625,55.53436279296875,-11.245421245421245,14.993894993894994,23.99023199023199,-1.87109375,-0.064453125,0.591796875,1.44195556640625,-0.18310546875,0.95367431640625,20.39169719169719,-65.22344322344323,30.737484737484735,-0.13232421875,2.046875,-0.01806640625,-0.66375732421875,0.06103515625,4.8980712890625,-81.41684981684982,18.892307692307693,-21.59120879120879
20:06.194,0.376953125,0.1826171875,2.0029296875,-8.50677490234375,-1.54876708984375,-37.5518798828125,-9.596092796092796,7.796825396825397,27.88864468864469,-1.8525390625,-0.1064453125,0.53564453125,1.44195556640625,-0.18310546875,0.95367431640625,22.04102564102564,-67.17264957264958,31.187301587301587,-0.12158203125,2.04931640625,0.0,-0.66375732421875,0.06103515625,4.8980712890625,-80.51721611721611,19.49206349206349,-19.64200244200244
20:07.072,0.392578125,0.25048828125,2.08642578125,7.25555419921875,17.6544189453125,41.229248046875,-11.545299145299145,4.798046398046398,25.33968253968254,-1.8701171875,-0.04833984375,0.56787109375,-5.16510009765625,-1.4190673828125,1.16729736328125,22.04102564102564,-67.17264957264958,31.187301587301587,-0.125,2.046875,-0.00927734375,-0.92315673828125,2.52532958984375,-1.54876708984375,-80.51721611721611,19.49206349206349,-19.64200244200244
20:07.901,0.59814453125,0.04541015625,1.95947265625,-10.59722900390625,2.44140625,-40.87066650390625,-10.345787545787545,7.047130647130647,29.238095238095237,-1.876953125,-0.076171875,0.58544921875,-2.5482177734375,1.6021728515625,1.27410888671875,21.29133089133089,-65.67326007326007,28.788278388278385,-0.09130859375,2.04833984375,-0.00341796875,-0.84686279296875,-0.14495849609375,3.875732421875,-80.66715506715506,18.59242979242979,-20.09181929181929
20:08.778,0.3037109375,0.04248046875,2.001953125,2.43377685546875,2.20489501953125,23.62060546875,-10.645665445665445,4.947985347985348,28.93821733821734,-1.8798828125,-0.08056640625,0.56884765625,-2.86102294921875,0.58746337890625,-0.99945068359375,23.39047619047619,-66.12307692307692,30.887423687423688,-0.10595703125,2.04345703125,-0.01123046875,-0.7476806640625,0.823974609375,0.0152587890625,-82.91623931623931,17.842735042735043,-20.09181929181929
20:09.704,0.3037109375,0.04248046875,2.001953125,-8.00323486328125,0.1068115234375,-27.65655517578125,-12.594871794871795,6.147496947496947,25.93943833943834,-1.85595703125,-0.095703125,0.56982421875,-3.31878662109375,-0.05340576171875,1.190185546875,20.69157509157509,-65.52332112332113,32.08693528693529,-0.0859375,2.04443359375,0.0009765625,-0.31280517578125,0.9918212890625,5.706787109375,-82.31648351648352,19.042246642246642,-22.04102564102564
20:10.728,0.42333984375,0.07470703125,1.98291015625,-1.6326904296875,-3.4637451171875,-5.6304931640625,-9.895970695970696,7.796825396825397,28.488400488400487,-1.8740234375,-0.06298828125,0.580078125,-2.54058837890625,1.52587890625,0.762939453125,21.59120879120879,-64.62368742368741,30.887423687423688,-0.13720703125,2.0537109375,-0.0068359375,-1.62506103515625,-0.7476806640625,1.5716552734375,-82.16654456654456,18.59242979242979,-21.59120879120879
20:11.557,0.42333984375,0.07470703125,1.98291015625,-1.6326904296875,-3.4637451171875,-5.6304931640625,-11.545299145299145,4.798046398046398,27.438827838827837,-1.88671875,-0.05029296875,0.5751953125,-1.25885009765625,7.51495361328125,-0.335693359375,22.49084249084249,-64.47374847374847,32.836630036630034,-0.095703125,2.0517578125,-0.017578125,-1.7547607421875,0.61798095703125,-0.0152587890625,-81.26691086691086,19.49206349206349,-23.09059829059829
20:12.434,0.41259765625,0.146484375,2.015625,2.05230712890625,9.1705322265625,9.0789794921875,-11.545299145299145,4.798046398046398,27.438827838827837,-1.85205078125,-0.06787109375,0.65185546875,-1.4801025390625,-1.44195556640625,1.40380859375,22.94065934065934,-65.22344322344323,30.737484737484735,-0.13623046875,2.05419921875,0.00048828125,-1.220703125,0.1373291015625,2.227783203125,-82.91623931623931,17.093040293040293,-21.89108669108669
20:13.361,0.44970703125,0.0947265625,1.98876953125,-1.27410888671875,-1.48773193359375,-30.14373779296875,-6.447374847374848,7.347008547008547,29.537973137973136,-1.85205078125,-0.06787109375,0.65185546875,-5.37109375,0.1678466796875,1.21307373046875,23.09059829059829,-67.92234432234432,33.73626373626374,-0.13623046875,2.05419921875,0.00048828125,0.0152587890625,0.9307861328125,3.11279296875,-80.21733821733821,18.44249084249084,-21.741147741147742
20:14.189,0.75927734375,0.10009765625,1.90625,16.12091064453125,18.66912841796875,46.73004150390625,-10.945543345543346,4.947985347985348,27.13894993894994,-1.82470703125,-0.0458984375,0.60693359375,-5.37109375,0.1678466796875,1.21307373046875,23.09059829059829,-67.92234432234432,33.73626373626374,-0.0849609375,2.05126953125,-0.0126953125,0.0152587890625,0.9307861328125,3.11279296875,-80.21733821733821,18.44249084249084,-21.741147741147742
20:15.018,0.638671875,0.173828125,1.95947265625,-12.7716064453125,4.21905517578125,-51.70440673828125,-10.345787545787545,3.1487179487179486,28.188522588522588,-1.79638671875,-0.0791015625,0.70751953125,-12.9852294921875,-5.85174560546875,3.6468505859375,20.69157509157509,-65.82319902319902,32.386813186813185,-0.23779296875,2.05908203125,0.06005859375,-6.05010986328125,-5.1727294921875,3.41796875,-80.81709401709402,20.54163614163614,-19.64200244200244
20:15.994,0.58154296875,-0.02392578125,1.9619140625,4.82177734375,-1.7242431640625,27.28271484375,-11.395360195360196,5.247863247863248,28.188522588522588,-1.8203125,-0.033203125,0.5986328125,8.392333984375,-4.84466552734375,-0.8697509765625,21.59120879120879,-66.42295482295482,34.78583638583638,-0.73828125,1.8828125,0.26416015625,3.2806396484375,-10.65826416015625,5.89752197265625,-80.81709401709402,21.59120879120879,-16.793162393162394
20:16.822,0.64013671875,0.2138671875,1.9443359375,-15.228271484375,-0.946044921875,-58.8531494140625,-11.995115995115995,2.0991452991452992,24.44004884004884,-1.84130859375,-0.0126953125,0.66064453125,4.4403076171875,4.17327880859375,1.48773193359375,22.04102564102564,-65.37338217338217,33.73626373626374,0.525390625,2.65478515625,0.224609375,-2.4566650390625,39.7796630859375,2.92205810546875,-78.11819291819292,28.638339438339436,-9.746031746031745
20:17.748,0.6513671875,0.185546875,1.95263671875,6.49261474609375,3.66973876953125,21.15631103515625,-8.846398046398047,4.1982905982905985,27.88864468864469,-1.82763671875,-0.15380859375,0.70703125,-6.9427490234375,3.0975341796875,1.3427734375,22.04102564102564,-64.62368742368741,31.487179487179485,-0.20849609375,2.05029296875,0.044921875,3.05938720703125,0.02288818359375,5.828857421875,-77.66837606837606,22.34090354090354,-9.446153846153846
20:18.577,0.6513671875,0.185546875,1.95263671875,6.49261474609375,3.66973876953125,21.15631103515625,-10.645665445665445,2.848840048840049,26.539194139194137,-1.86083984375,-0.04541015625,0.62548828125,4.791259765625,-0.51116943359375,-1.21307373046875,22.19096459096459,-67.32258852258852,32.386813186813185,-0.01171875,2.05908203125,0.02294921875,2.18963623046875,-3.448486328125,15.9149169921875,-75.71916971916971,19.34212454212454,-13.794383394383393
20:19.552,0.55908203125,0.28662109375,1.97509765625,-9.58251953125,-1.28936767578125,-40.42816162109375,-10.195848595848595,6.897191697191697,28.788278388278385,-1.86962890625,-0.048828125,0.58544921875,3.73077392578125,0.0152587890625,-1.2664794921875,22.34090354090354,-65.67326007326007,35.08571428571428,0.1318359375,2.046875,-0.00634765625,-1.13677978515625,0.78582763671875,-4.00543212890625,-75.26935286935287,19.34212454212454,-15.293772893772893
20:20.381,0.52587890625,-0.03125,1.9794921875,0.48828125,-1.64031982421875,11.37542724609375,-10.195848595848595,6.897191697191697,28.788278388278385,-1.86962890625,-0.048828125,0.58544921875,-4.39453125,0.5340576171875,1.495361328125,24.29010989010989,-66.27301587301586,37.33479853479853,0.1318359375,2.046875,-0.00634765625,-1.0833740234375,2.05230712890625,-0.63323974609375,-77.66837606837606,17.242979242979242,-16.49328449328449
20:21.356,0.6484375,0.4453125,1.89892578125,-4.302978515625,18.53179931640625,-64.85748291015625,-14.244200244200243,0.0,22.04102564102564,-1.875,0.0322265625,0.580078125,-2.38800048828125,-0.274658203125,-0.14495849609375,22.19096459096459,-65.52332112332113,35.23565323565323,0.01171875,2.060546875,0.02294921875,-0.90789794921875,0.25177001953125,2.41851806640625,-78.86788766788767,19.941880341880342,-15.893528693528692
20:22.379,0.1630859375,-0.32373046875,2.01025390625,-3.23486328125,5.05828857421875,-4.5013427734375,-9.895970695970696,10.945543345543346,29.987789987789988,-1.8896484375,0.03173828125,0.580078125,-7.75146484375,-0.2899169921875,3.265380859375,24.88986568986569,-65.67326007326007,37.934554334554335,-0.00927734375,2.05615234375,0.02294921875,-1.0833740234375,1.6937255859375,-1.3275146484375,-75.41929181929181,18.742368742368743,-15.443711843711844
20:23.355,0.73779296875,0.47119140625,1.94091796875,1.15966796875,-10.20050048828125,31.8603515625,-15.443711843711844,1.9492063492063492,21.89108669108669,-1.923828125,-0.03271484375,0.53125,-3.692626953125,-1.64031982421875,-1.03759765625,23.690354090354088,-65.52332112332113,35.53553113553114,-0.02734375,2.0634765625,0.03076171875,-0.42724609375,-0.78582763671875,6.2408447265625,-77.51843711843712,19.941880341880342,-15.293772893772893
20:24.183,0.1982421875,-0.095703125,2.0986328125,0.0152587890625,-10.52093505859375,-7.4005126953125,-9.746031746031745,9.296214896214895,26.689133089133087,-1.8505859375,0.05224609375,0.60205078125,-3.692626953125,-1.64031982421875,-1.03759765625,23.690354090354088,-66.57289377289376,34.93577533577533,-0.06982421875,2.05322265625,0.02734375,-0.42724609375,-0.78582763671875,6.2408447265625,-76.01904761904761,18.59242979242979,-12.444932844932845
20:25.305,0.599609375,0.3251953125,1.90087890625,7.62939453125,18.157958984375,31.47125244140625,-15.293772893772893,0.5997557997557997,21.741147741147742,-1.8486328125,0.0234375,0.62451171875,-6.103515625,-1.27410888671875,0.9918212890625,24.14017094017094,-65.67326007326007,35.38559218559219,-0.0009765625,2.0615234375,0.01416015625,-1.74713134765625,1.28173828125,2.5482177734375,-76.76874236874237,17.842735042735043,-14.544078144078144
20:26.133,0.37939453125,0.02685546875,2.00146484375,-0.52642822265625,10.07843017578125,-17.39501953125,-7.796825396825397,10.645665445665445,29.238095238095237,-1.8623046875,0.0146484375,0.5869140625,-4.26483154296875,-5.5389404296875,0.5950927734375,24.14017094017094,-65.67326007326007,35.38559218559219,0.05126953125,2.06396484375,0.009765625,-0.732421875,-0.3814697265625,3.92913818359375,-76.76874236874237,17.842735042735043,-14.544078144078144
20:27.011,0.57080078125,0.1591796875,1.98681640625,1.77764892578125,-8.8043212890625,39.20745849609375,-14.544078144078144,2.399023199023199,23.09059829059829,-1.84619140625,0.04052734375,0.61865234375,-1.36566162109375,1.73187255859375,-0.83160400390625,24.739926739926737,-67.77240537240537,36.58510378510378,0.02685546875,2.05908203125,0.02197265625,-1.19781494140625,2.166748046875,-1.38092041015625,-76.61880341880341,16.64322344322344,-15.443711843711844
20:27.937,0.4990234375,-0.0263671875,1.8896484375,-7.049560546875,-1.953125,-31.79168701171875,-11.845177045177044,7.646886446886446,26.389255189255188,-1.84619140625,0.001953125,0.61083984375,-0.91552734375,-1.53350830078125,-2.349853515625,20.69157509157509,-63.27423687423687,34.93577533577533,0.0322265625,2.05859375,0.0166015625,0.16021728515625,0.640869140625,2.05230712890625,-78.11819291819292,17.54285714285714,-14.544078144078144
20:28.814,0.92529296875,0.0927734375,1.822265625,12.7105712890625,13.6566162109375,27.191162109375,-12.444932844932845,2.399023199023199,21.44126984126984,-1.81787109375,-0.015625,0.68603515625,0.12969970703125,-4.2266845703125,-0.89263916015625,25.18974358974359,-66.12307692307692,40.033699633699634,0.01904296875,2.056640625,0.02197265625,-0.762939453125,0.9613037109375,1.50299072265625,-76.76874236874237,18.142612942612942,-16.343345543345542
20:29.741,0.732421875,0.21435546875,1.9169921875,-11.22283935546875,4.7149658203125,-35.48431396484375,-10.345787545787545,-1.799267399267399,18.29255189255189,-1.81689453125,-0.021484375,0.66943359375,-2.655029296875,1.19781494140625,1.91497802734375,24.589987789987788,-60.87521367521367,36.435164835164834,0.01708984375,2.05712890625,0.0224609375,-1.16729736328125,1.2359619140625,1.1138916015625,-77.81831501831502,19.941880341880342,-13.794383394383393
20:30.570,0.732421875,0.21435546875,1.9169921875,3.7078857421875,-0.54931640625,13.08441162109375,-11.245421245421245,1.9492063492063492,25.03980463980464,-1.8388671875,-0.041015625,0.6767578125,-3.5858154296875,-0.1068115234375,1.007080078125,24.14017094017094,-66.42295482295482,38.53431013431013,0.0166015625,2.05908203125,0.02587890625,-1.48773193359375,0.6256103515625,1.739501953125,-77.51843711843712,18.59242979242979,-14.843956043956043
20:31.447,0.6826171875,0.05029296875,1.9306640625,3.7078857421875,-0.54931640625,13.08441162109375,-11.245421245421245,1.9492063492063492,25.03980463980464,-1.90576171875,-0.0009765625,0.6455078125,-5.5999755859375,3.1890869140625,3.65447998046875,23.24053724053724,-60.72527472527472,35.53553113553114,0.02734375,2.05810546875,0.013671875,-0.946044921875,1.0223388671875,1.77764892578125,-77.21855921855922,19.042246642246642,-15.743589743589743
20:32.325,0.673828125,0.345703125,1.9345703125,-3.7689208984375,9.17816162109375,-12.3443603515625,-12.744810744810744,2.399023199023199,17.242979242979242,-1.90576171875,-0.0009765625,0.6455078125,-2.70843505859375,-1.70135498046875,0.31280517578125,23.09059829059829,-66.12307692307692,38.53431013431013,0.02734375,2.05810546875,0.013671875,-1.42669677734375,0.75531005859375,0.885009765625,-78.11819291819292,17.54285714285714,-14.244200244200243
20:33.299,0.53076171875,-0.08154296875,1.99609375,-0.54931640625,1.39617919921875,6.4849853515625,-8.996336996336996,4.798046398046398,30.737484737484735,-1.83349609375,-0.02490234375,0.689453125,-4.81414794921875,2.41851806640625,5.3863525390625,22.94065934065934,-61.47496947496947,34.93577533577533,0.013671875,2.06201171875,0.0234375,-0.8544921875,0.96893310546875,1.99127197265625,-77.21855921855922,17.692796092796094,-17.842735042735043
20:34.177,0.5419921875,0.29638671875,1.9140625,-9.81903076171875,-21.1639404296875,-38.99383544921875,-12.894749694749695,1.9492063492063492,15.743589743589743,-1.8857421875,-0.02978515625,0.625,-4.81414794921875,2.41851806640625,5.3863525390625,22.94065934065934,-61.47496947496947,34.93577533577533,0.02490234375,2.0634765625,0.02001953125,-0.8544921875,0.96893310546875,1.99127197265625,-77.21855921855922,17.692796092796094,-17.842735042735043
20:35.006,0.54052734375,-0.04638671875,1.9794921875,-1.80816650390625,-2.3956298828125,3.2958984375,-9.895970695970696,7.347008547008547,30.287667887667887,-1.86767578125,-0.04052734375,0.583984375,-4.17327880859375,-1.67083740234375,0.6561279296875,25.18974358974359,-67.92234432234432,38.234432234432234,0.0146484375,2.05712890625,0.01513671875,-0.8697509765625,0.640869140625,1.861572265625,-78.11819291819292,17.093040293040293,-15.593650793650793
20:35.883,0.50146484375,0.21875,2.00537109375,-4.89044189453125,-1.28173828125,-25.5126953125,-13.194627594627594,0.5997557997557997,13.944322344322345,-1.84130859375,-0.0703125,0.66796875,0.2899169921875,0.02288818359375,2.44903564453125,22.79072039072039,-60.57533577533577,37.18485958485958,0.0546875,2.0634765625,0.01416015625,-1.220703125,0.37384033203125,0.9918212890625,-77.51843711843712,18.59242979242979,-14.244200244200243
20:36.761,0.52001953125,0.06494140625,1.99267578125,3.24249267578125,-3.53240966796875,28.55682373046875,-13.494505494505495,3.8984126984126983,24.14017094017094,-1.8564453125,0.0009765625,0.60009765625,-0.05340576171875,0.9307861328125,1.3427734375,25.78949938949939,-66.57289377289376,39.13406593406593,0.05029296875,2.05322265625,0.0205078125,-1.01470947265625,1.251220703125,1.28173828125,-77.81831501831502,16.043467643467643,-17.39291819291819
20:37.639,0.52001953125,0.06494140625,1.99267578125,-7.75146484375,3.99017333984375,-27.42767333984375,-11.545299145299145,2.548962148962149,23.99023199023199,-1.88330078125,0.0068359375,0.712890625,-4.03594970703125,-0.42724609375,4.66156005859375,24.88986568986569,-66.12307692307692,38.53431013431013,0.0107421875,2.056640625,0.0322265625,-1.06048583984375,-0.030517578125,3.23486328125,-76.01904761904761,16.793162393162394,-15.893528693528692
20:38.516,0.634765625,0.11474609375,1.91064453125,-7.75146484375,3.99017333984375,-27.42767333984375,-12.594871794871795,1.1995115995115995,25.03980463980464,-1.875,-0.0302734375,0.6787109375,2.3651123046875,0.42724609375,-1.85394287109375,25.03980463980464,-65.82319902319902,38.68424908424908,0.0556640625,2.060546875,0.0107421875,-0.74005126953125,0.40435791015625,1.4190673828125,-75.71916971916971,18.892307692307693,-15.293772893772893
20:39.442,0.6259765625,0.2158203125,1.9384765625,8.00323486328125,-0.67901611328125,36.3311767578125,-10.945543345543346,3.1487179487179486,25.78949938949939,-1.82373046875,-0.0546875,0.6064453125,-4.26483154296875,-0.92315673828125,1.8157958984375,23.99023199023199,-65.52332112332113,36.58510378510378,0.02880859375,2.05615234375,0.01416015625,-0.8697509765625,3.936767578125,0.42724609375,-77.81831501831502,17.093040293040293,-15.293772893772893
20:40.417,0.64013671875,0.13232421875,1.95263671875,-9.1400146484375,7.171630859375,-34.97314453125,-10.945543345543346,3.1487179487179486,25.78949938949939,-1.84375,-0.06103515625,0.70068359375,-3.24249267578125,-1.53350830078125,-0.6561279296875,24.29010989010989,-66.27301587301586,41.23321123321123,0.01708984375,2.06591796875,0.01806640625,-1.0528564453125,1.708984375,-0.51116943359375,-77.81831501831502,18.142612942612942,-16.343345543345542
20:41.295,0.53515625,0.11767578125,1.9814453125,1.24359130859375,-1.54876708984375,15.48004150390625,-12.594871794871795,1.9492063492063492,24.29010989010989,-1.84375,-0.06103515625,0.70068359375,-3.5400390625,1.96075439453125,2.899169921875,25.639560439560437,-66.42295482295482,40.63345543345543,0.01708984375,2.06591796875,0.01806640625,-1.556396484375,1.4495849609375,0.3662109375,-77.06862026862026,16.793162393162394,-15.293772893772893
20:42.221,0.63623046875,0.2412109375,1.939453125,-8.1939697265625,3.94439697265625,-28.80096435546875,-14.694017094017093,2.249084249084249,22.64078144078144,-1.85693359375,-0.0244140625,0.66845703125,-3.5400390625,1.96075439453125,2.899169921875,25.639560439560437,-66.42295482295482,40.63345543345543,-0.029296875,2.0595703125,0.02978515625,-1.556396484375,1.4495849609375,0.3662109375,-77.06862026862026,16.793162393162394,-15.293772893772893
20:43.049,0.5302734375,0.08642578125,1.9814453125,5.0048828125,-1.44195556640625,25.36773681640625,-11.395360195360196,3.1487179487179486,25.78949938949939,-1.81982421875,-0.033203125,0.62158203125,-0.152587890625,-0.8087158203125,-0.22125244140625,25.639560439560437,-66.42295482295482,39.28400488400488,-0.00634765625,2.05712890625,0.0185546875,-1.2054443359375,0.5645751953125,0.38909912109375,-77.51843711843712,19.64200244200244,-15.293772893772893
20:44.029,0.583984375,0.2373046875,2.0078125,-6.26373291015625,-1.88446044921875,-25.726318359375,-13.794383394383393,1.3494505494505493,20.09181929181929,-1.85986328125,0.03369140625,0.63623046875,-6.04248046875,-0.28228759765625,3.54766845703125,25.639560439560437,-64.62368742368741,38.98412698412698,-0.02294921875,2.05908203125,0.02978515625,0.06103515625,2.0599365234375,2.31170654296875,-78.86788766788767,18.59242979242979,-14.843956043956043
20:44.854,0.521484375,0.03369140625,1.98193359375,0.7781982421875,0.5035400390625,11.90948486328125,-11.995115995115995,3.4485958485958483,24.739926739926737,-1.84814453125,-0.02587890625,0.65087890625,-0.3204345703125,1.2664794921875,-1.52587890625,23.690354090354088,-65.82319902319902,37.634676434676436,0.03466796875,2.06494140625,0.01220703125,-1.617431640625,-0.40435791015625,-0.31280517578125,-76.91868131868132,19.042246642246642,-13.644444444444444
20:45.780,0.6123046875,0.3310546875,1.93017578125,-5.68389892578125,-5.60760498046875,-17.75360107421875,-13.944322344322345,1.9492063492063492,20.841514041514042,-1.84228515625,0.02978515625,0.658203125,-3.7078857421875,-1.89208984375,1.40380859375,23.84029304029304,-65.67326007326007,38.234432234432234,0.01708984375,2.0595703125,0.00341796875,0.1983642578125,0.8392333984375,4.50897216796875,-75.41929181929181,17.242979242979242,-15.443711843711844
20:46.705,0.6123046875,0.3310546875,1.93017578125,1.33514404296875,-1.62506103515625,12.0849609375,-12.894749694749695,4.798046398046398,26.689133089133087,-1.83447265625,0.0078125,0.626953125,-0.7781982421875,0.17547607421875,0.60272216796875,22.34090354090354,-65.37338217338217,38.234432234432234,0.0322265625,2.0556640625,0.0166015625,-1.03759765625,-0.3662109375,1.79290771484375,-76.61880341880341,19.49206349206349,-15.143833943833943
20:47.633,0.537109375,0.0029296875,1.99560546875,-2.05230712890625,-0.00762939453125,-1.51824951171875,-14.993894993894994,0.14993894993894993,18.892307692307693,-1.90576171875,-0.0244140625,0.63916015625,-2.47955322265625,2.38800048828125,4.180908203125,25.78949938949939,-65.82319902319902,39.13406593406593,0.044921875,2.0634765625,0.0126953125,-0.86212158203125,0.1983642578125,2.7618408203125,-77.96825396825396,18.44249084249084,-15.743589743589743
20:48.558,0.60400390625,0.48486328125,1.92041015625,-2.05230712890625,-0.00762939453125,-1.51824951171875,-12.444932844932845,6.297435897435897,27.88864468864469,-1.8427734375,0.01953125,0.64013671875,-2.1514892578125,0.274658203125,-1.7242431640625,24.739926739926737,-66.27301587301586,38.38437118437118,0.0185546875,2.06591796875,0.0146484375,-0.83160400390625,0.579833984375,1.708984375,-79.31770451770451,18.892307692307693,-16.343345543345542
20:49.436,0.65771484375,0.017578125,1.92431640625,-7.232666015625,-1.922607421875,-24.04022216796875,-12.444932844932845,6.297435897435897,27.88864468864469,-1.8662109375,0.0263671875,0.591796875,-5.2032470703125,-1.46484375,1.129150390625,23.09059829059829,-67.92234432234432,40.63345543345543,0.04248046875,2.0625,0.00146484375,-1.30462646484375,0.92315673828125,1.03759765625,-77.66837606837606,18.44249084249084,-16.193406593406593
20:50.265,0.6171875,0.2490234375,1.9453125,9.08660888671875,3.89862060546875,45.08209228515625,-17.692796092796094,0.29987789987789987,19.64200244200244,-1.8662109375,0.0263671875,0.591796875,-2.76947021484375,0.0152587890625,1.97601318359375,23.39047619047619,-65.37338217338217,37.18485958485958,0.04248046875,2.0625,0.00146484375,-1.312255859375,0.3662109375,1.45721435546875,-77.81831501831502,18.142612942612942,-15.893528693528692
20:51.239,0.59375,0.32421875,2.0283203125,-4.5318603515625,-1.13677978515625,-25.665283203125,-12.594871794871795,3.598534798534798,25.33968253968254,-1.8564453125,-0.01220703125,0.64794921875,-2.76947021484375,0.0152587890625,1.97601318359375,23.99023199023199,-65.52332112332113,39.433943833943836,0.0341796875,2.06005859375,0.0224609375,-1.312255859375,0.3662109375,1.45721435546875,-76.01904761904761,17.842735042735043,-16.343345543345542
20:52.117,0.66455078125,0.12548828125,2.01513671875,2.86865234375,-3.3721923828125,35.125732421875,-12.444932844932845,1.3494505494505493,20.99145299145299,-1.84814453125,0.0224609375,0.6064453125,-3.6773681640625,1.24359130859375,-0.89263916015625,23.99023199023199,-65.52332112332113,39.433943833943836,0.02197265625,2.06494140625,0.0283203125,-0.26702880859375,1.2969970703125,2.6702880859375,-76.01904761904761,17.842735042735043,-16.343345543345542
20:53.043,0.6220703125,0.13525390625,1.95654296875,-7.56072998046875,11.2762451171875,-33.5693359375,-10.795604395604395,5.097924297924298,25.93943833943834,-1.86083984375,-0.04150390625,0.6630859375,-3.05938720703125,0.0,1.1444091796875,24.14017094017094,-65.67326007326007,38.234432234432234,0.02001953125,2.0654296875,0.0234375,-1.09100341796875,-0.49591064453125,1.6632080078125,-77.06862026862026,18.892307692307693,-14.244200244200243
20:53.872,0.578125,0.1357421875,1.9462890625,6.32476806640625,-3.0059814453125,32.08160400390625,-12.444932844932845,3.1487179487179486,23.09059829059829,-1.84716796875,0.080078125,0.67578125,-2.7923583984375,-3.74603271484375,-0.91552734375,23.99023199023199,-67.02271062271062,38.084493284493284,0.0126953125,2.05712890625,0.01220703125,-1.0528564453125,0.91552734375,1.12152099609375,-77.81831501831502,20.39169719169719,-16.64322344322344
20:54.750,0.6015625,0.310546875,1.986328125,-8.01849365234375,4.852294921875,-29.6478271484375,-10.795604395604395,4.348229548229548,23.24053724053724,-1.861328125,-0.03466796875,0.59912109375,-1.3275146484375,6.82830810546875,1.79290771484375,24.739926739926737,-67.77240537240537,37.634676434676436,0.02978515625,2.052734375,0.02001953125,-1.54876708984375,0.885009765625,0.6561279296875,-79.31770451770451,18.892307692307693,-15.593650793650793
20:55.627,0.6015625,0.310546875,1.986328125,10.9100341796875,8.90350341796875,33.172607421875,-13.344566544566543,2.548962148962149,23.690354090354088,-1.861328125,-0.02685546875,0.59912109375,-5.50079345703125,-0.91552734375,-0.1220703125,25.18974358974359,-67.92234432234432,37.934554334554335,-0.017578125,2.05859375,0.0263671875,-1.0986328125,1.312255859375,-1.6937255859375,-78.11819291819292,17.54285714285714,-14.843956043956043
20:56.553,0.75390625,0.12353515625,1.89794921875,10.9100341796875,8.90350341796875,33.172607421875,-13.944322344322345,0.14993894993894993,20.54163614163614,-1.84765625,-0.01416015625,0.63037109375,-3.72314453125,-0.6256103515625,3.936767578125,25.03980463980464,-65.82319902319902,38.38437118437118,-0.05517578125,2.06201171875,0.04931640625,-1.1749267578125,1.190185546875,0.70953369140625,-77.66837606837606,19.042246642246642,-15.443711843711844
20:57.577,0.6630859375,0.3134765625,1.92431640625,-10.3759765625,6.9427490234375,-37.78076171875,-12.594871794871795,3.598534798534798,25.03980463980464,-1.8212890625,0.0009765625,0.62548828125,-1.2664794921875,1.6937255859375,-1.30462646484375,23.84029304029304,-66.12307692307692,36.435164835164834,0.0068359375,2.0625,0.015625,-1.0833740234375,-0.152587890625,1.24359130859375,-76.31892551892551,19.34212454212454,-14.843956043956043
20:58.455,0.68115234375,0.20703125,1.935546875,6.317138671875,-30.79986572265625,39.07012939453125,-12.594871794871795,3.598534798534798,25.03980463980464,-1.84716796875,-0.0185546875,0.63232421875,-5.18798828125,2.64739990234375,3.13568115234375,24.88986568986569,-66.87277167277168,38.234432234432234,-0.02880859375,2.05859375,0.02783203125,-1.0223388671875,1.0833740234375,1.0528564453125,-77.66837606837606,18.44249084249084,-14.094261294261294
20:59.283,0.58349609375,0.21728515625,1.94580078125,-7.7362060546875,-2.29644775390625,-26.4129638671875,-14.993894993894994,1.4993894993894994,20.54163614163614,-1.84716796875,-0.0185546875,0.63232421875,-5.18798828125,2.64739990234375,3.13568115234375,24.14017094017094,-64.17387057387057,37.48473748473749,-0.02880859375,2.05859375,0.02783203125,-1.0223388671875,1.0833740234375,1.0528564453125,-78.56800976800976,19.64200244200244,-15.293772893772893
21:00.162,0.77978515625,0.16796875,1.85302734375,13.89312744140625,1.07574462890625,42.5872802734375,-14.544078144078144,2.399023199023199,23.84029304029304,-1.85986328125,-0.01708984375,0.603515625,-1.77764892578125,0.1678466796875,0.48065185546875,25.18974358974359,-67.17264957264958,38.234432234432234,-0.041015625,2.0546875,0.0341796875,-0.89263916015625,0.4119873046875,1.2969970703125,-76.61880341880341,19.042246642246642,-14.094261294261294
21:01.136,0.68408203125,0.2529296875,1.9033203125,-9.307861328125,-4.39453125,-28.61785888671875,-13.944322344322345,-1.3494505494505493,17.842735042735043,-1.8603515625,0.0,0.642578125,-4.69970703125,0.22125244140625,3.2196044921875,25.18974358974359,-67.17264957264958,38.234432234432234,-0.0517578125,2.0537109375,0.0361328125,-1.0833740234375,1.2664794921875,-0.74005126953125,-76.61880341880341,19.042246642246642,-14.094261294261294
21:02.013,0.68798828125,0.11865234375,1.94384765625,5.4931640625,0.12969970703125,18.6004638671875,-11.545299145299145,4.348229548229548,29.388034188034187,-1.84326171875,-0.01171875,0.634765625,-1.04522705078125,0.35858154296875,-0.72479248046875,23.24053724053724,-65.22344322344323,37.03492063492063,-0.01806640625,2.0625,0.0234375,-1.9378662109375,0.1678466796875,-0.69427490234375,-77.06862026862026,18.892307692307693,-13.494505494505495
21:02.842,0.4619140625,0.34814453125,1.9765625,-0.9307861328125,-0.67901611328125,-20.5535888671875,-14.843956043956043,-0.4498168498168498,17.992673992673993,-1.87548828125,-0.01318359375,0.62255859375,-2.13623046875,-0.1068115234375,3.631591796875,23.690354090354088,-65.82319902319902,38.38437118437118,-0.03173828125,2.06103515625,0.0263671875,-0.091552734375,1.0223388671875,2.4261474609375,-76.31892551892551,21.44126984126984,-13.494505494505495
21:03.720,0.408203125,0.06201171875,1.99658203125,3.84521484375,-2.62451171875,26.7333984375,-9.746031746031745,7.946764346764346,28.788278388278385,-1.76123046875,-0.0419921875,0.84326171875,-2.4566650390625,-3.4027099609375,0.12969970703125,22.34090354090354,-67.92234432234432,36.435164835164834,-0.04443359375,2.0498046875,0.02685546875,-1.129150390625,1.02996826171875,0.8697509765625,-75.41929181929181,19.791941391941393,-15.143833943833943
21:04.548,0.408203125,0.06201171875,1.99658203125,3.84521484375,-2.62451171875,26.7333984375,-16.49328449328449,1.4993894993894994,18.142612942612942,-1.73974609375,-0.0458984375,0.89404296875,-0.5645751953125,-2.79998779296875,2.62451171875,23.24053724053724,-64.47374847374847,40.18363858363858,0.05712890625,2.05322265625,0.03369140625,-1.0986328125,0.6561279296875,1.09100341796875,-78.56800976800976,20.39169719169719,-14.843956043956043
21:05.523,0.5146484375,0.36328125,1.9326171875,-14.48822021484375,-10.31494140625,-56.5643310546875,-10.495726495726496,7.197069597069596,28.338461538461537,-1.7548828125,-0.0361328125,0.9208984375,-5.5389404296875,2.3040771484375,2.0751953125,23.690354090354088,-67.02271062271062,43.33235653235653,-0.0234375,2.05615234375,0.02099609375,-1.6326904296875,1.52587890625,-1.10626220703125,-77.96825396825396,17.242979242979242,-14.694017094017093
21:06.450,0.39599609375,0.203125,1.912109375,0.7781982421875,-10.67352294921875,15.1519775390625,-10.495726495726496,7.197069597069596,28.338461538461537,-1.78173828125,-0.01318359375,0.8232421875,-4.38690185546875,1.33514404296875,1.6632080078125,25.18974358974359,-65.37338217338217,41.38315018315018,-0.0595703125,2.0595703125,0.02587890625,-0.732421875,1.31988525390625,1.53350830078125,-79.46764346764347,17.692796092796094,-14.094261294261294
21:07.279,0.53759765625,0.2978515625,1.96142578125,-8.55255126953125,-7.7362060546875,-32.3638916015625,-13.944322344322345,4.048351648351648,18.44249084249084,-1.78173828125,-0.01318359375,0.8232421875,-4.24957275390625,3.77655029296875,0.0762939453125,24.739926739926737,-65.52332112332113,42.58266178266178,-0.0595703125,2.0595703125,0.02587890625,-1.495361328125,0.34332275390625,2.1820068359375,-76.01904761904761,19.64200244200244,-13.794383394383393
21:08.400,0.35302734375,-0.0927734375,2.01513671875,3.2958984375,22.17864990234375,13.2598876953125,-13.194627594627594,7.347008547008547,26.83907203907204,-1.81787109375,0.0048828125,0.81396484375,-2.46429443359375,-1.922607421875,1.0223388671875,23.99023199023199,-65.22344322344323,38.084493284493284,-0.04150390625,2.048828125,0.029296875,-1.42669677734375,0.7171630859375,0.75531005859375,-78.56800976800976,19.941880341880342,-12.444932844932845
21:09.326,0.44873046875,0.3818359375,2.01708984375,-0.46539306640625,0.732421875,14.4195556640625,-13.944322344322345,1.1995115995115995,15.143833943833943,-1.81787109375,0.0048828125,0.81396484375,-3.7689208984375,-1.10626220703125,1.2969970703125,22.34090354090354,-65.67326007326007,40.63345543345543,-0.04150390625,2.048828125,0.029296875,-0.1373291015625,-2.3956298828125,1.50299072265625,-76.31892551892551,18.892307692307693,-15.893528693528692
21:10.203,0.5185546875,0.09130859375,2.0,-6.7901611328125,1.16729736328125,-25.9857177734375,-10.495726495726496,8.696459096459096,28.788278388278385,-1.77197265625,-0.0205078125,0.791015625,-3.7689208984375,-1.10626220703125,1.2969970703125,20.69157509157509,-64.02393162393162,38.084493284493284,-0.04248046875,2.060546875,0.03955078125,-0.1373291015625,-2.3956298828125,1.50299072265625,-78.11819291819292,21.14139194139194,-11.395360195360196
21:11.179,0.5517578125,0.2021484375,1.966796875,4.21142578125,-3.01361083984375,19.6685791015625,-14.694017094017093,2.249084249084249,17.093040293040293,-1.83447265625,-0.0009765625,0.77880859375,-3.97491455078125,2.1209716796875,0.7171630859375,24.589987789987788,-65.37338217338217,40.33357753357753,-0.03466796875,2.0537109375,-0.037109375,-1.24359130859375,0.9918212890625,1.80816650390625,-77.81831501831502,18.59242979242979,-16.943101343101343
21:12.202,0.57763671875,0.40185546875,1.97998046875,-6.011962890625,4.3487548828125,-37.017822265625,-14.244200244200243,2.399023199023199,21.44126984126984,-1.81591796875,-0.037109375,0.708984375,-1.86920166015625,-0.1220703125,2.166748046875,24.589987789987788,-65.37338217338217,40.33357753357753,-0.03173828125,2.05908203125,-0.02587890625,-1.24359130859375,0.9918212890625,1.80816650390625,-77.81831501831502,18.59242979242979,-16.943101343101343
21:13.080,0.6103515625,0.27099609375,1.97998046875,5.462646484375,-5.462646484375,51.26953125,-14.394139194139193,3.598534798534798,17.842735042735043,-1.8193359375,0.02490234375,0.68603515625,-1.953125,-0.34332275390625,0.12969970703125,20.99145299145299,-59.825641025641026,36.88498168498168,-0.02197265625,2.052734375,-0.02490234375,-0.91552734375,1.03759765625,1.0528564453125,-76.91868131868132,20.54163614163614,-15.743589743589743
21:14.006,0.4365234375,0.22412109375,1.998046875,-10.1165771484375,3.5247802734375,-63.13323974609375,-13.644444444444444,2.998778998778999,25.639560439560437,-1.80908203125,-0.01611328125,0.716796875,-2.52532958984375,0.43487548828125,2.67791748046875,23.84029304029304,-66.42295482295482,38.234432234432234,-0.02392578125,2.056640625,-0.0087890625,-0.9002685546875,0.48828125,2.47955322265625,-77.51843711843712,19.34212454212454,-15.293772893772893
21:14.835,0.4111328125,0.154296875,2.0400390625,6.591796875,3.62396240234375,42.73223876953125,-13.344566544566543,4.348229548229548,15.443711843711844,-1.81982421875,-0.04150390625,0.6826171875,-0.78582763671875,-0.6103515625,-0.5645751953125,19.49206349206349,-61.32503052503052,34.336019536019535,-0.0478515625,2.04931640625,0.0068359375,-1.1444091796875,0.93841552734375,1.21307373046875,-77.21855921855922,19.49206349206349,-13.644444444444444
21:15.663,0.4111328125,0.154296875,2.0400390625,-5.31005859375,-6.01959228515625,-23.55194091796875,-14.993894993894994,1.9492063492063492,20.24175824175824,-1.876953125,0.00146484375,0.65478515625,-3.326416015625,6.744384765625,2.6397705078125,21.44126984126984,-66.27301587301586,38.38437118437118,-0.03271484375,2.05517578125,-0.00048828125,-0.457763671875,0.7476806640625,2.6702880859375,-77.81831501831502,18.59242979242979,-15.593650793650793
21:16.590,0.3671875,0.44775390625,1.97216796875,-5.31005859375,-6.01959228515625,-23.55194091796875,-10.345787545787545,9.895970695970696,24.14017094017094,-1.84375,-0.041015625,0.673828125,-1.8768310546875,0.6103515625,0.518798828125,22.04102564102564,-58.77606837606837,34.336019536019535,-0.0439453125,2.05712890625,0.01416015625,-2.01416015625,-0.7171630859375,3.82232666015625,-78.41807081807082,19.042246642246642,-15.143833943833943
21:17.419,0.275390625,-0.05224609375,2.01416015625,0.5035400390625,17.547607421875,13.98468017578125,-10.345787545787545,9.895970695970696,24.14017094017094,-1.84375,-0.041015625,0.673828125,-0.5340576171875,-0.3509521484375,0.213623046875,23.09059829059829,-64.62368742368741,37.934554334554335,-0.0341796875,2.05615234375,0.00390625,-1.251220703125,1.45721435546875,-0.19073486328125,-76.16898656898657,20.54163614163614,-14.094261294261294
21:18.344,0.5322265625,0.421875,1.958984375,1.53350830078125,3.4332275390625,36.44561767578125,-15.293772893772893,1.0495726495726496,17.692796092796094,-1.84912109375,0.02197265625,0.6611328125,-2.95257568359375,-0.457763671875,0.43487548828125,23.24053724053724,-67.02271062271062,37.634676434676436,-0.0341796875,2.05615234375,0.00390625,-1.01470947265625,0.457763671875,2.227783203125,-77.96825396825396,18.742368742368743,-15.143833943833943
21:19.222,0.22900390625,0.08154296875,2.00048828125,-0.64849853515625,3.82232666015625,-15.23590087890625,-15.293772893772893,9.146275946275946,26.539194139194137,-1.8603515625,-0.04150390625,0.720703125,-3.0975341796875,-4.23431396484375,0.45013427734375,23.84029304029304,-65.67326007326007,39.28400488400488,-0.0458984375,2.064453125,0.00439453125,-0.9002685546875,0.8087158203125,0.274658203125,-77.66837606837606,18.742368742368743,-16.193406593406593
21:20.344,0.35888671875,0.30810546875,1.99169921875,3.71551513671875,4.66156005859375,35.5987548828125,-14.544078144078144,2.848840048840049,20.69157509157509,-1.8193359375,0.01513671875,0.6884765625,-2.044677734375,0.396728515625,2.96783447265625,23.24053724053724,-67.32258852258852,38.68424908424908,-0.03076171875,2.0537109375,-0.00244140625,-1.16729736328125,1.7242431640625,1.35040283203125,-78.56800976800976,18.892307692307693,-14.544078144078144
21:21.367,0.34326171875,0.35205078125,1.99560546875,-4.99725341796875,-7.80487060546875,-51.01776123046875,-15.293772893772893,6.747252747252747,20.39169719169719,-1.8232421875,-0.0302734375,0.71728515625,-2.57110595703125,1.01470947265625,0.2899169921875,24.589987789987788,-66.42295482295482,38.234432234432234,-0.044921875,2.05810546875,0.0048828125,-1.45721435546875,0.2288818359375,1.97601318359375,-77.81831501831502,19.34212454212454,-16.64322344322344
21:22.245,0.19482421875,0.044921875,2.05126953125,0.06103515625,0.0152587890625,19.67620849609375,-14.694017094017093,7.946764346764346,23.690354090354088,-1.81591796875,-0.03466796875,0.74658203125,-2.57110595703125,1.01470947265625,0.2899169921875,23.690354090354088,-65.82319902319902,39.433943833943836,-0.03173828125,2.05419921875,-0.01416015625,-1.45721435546875,0.2288818359375,1.97601318359375,-76.61880341880341,19.791941391941393,-15.443711843711844
21:23.171,0.23583984375,0.38427734375,1.974609375,-0.48828125,2.86865234375,33.27178955078125,-17.39291819291819,3.1487179487179486,17.242979242979242,-1.84814453125,0.00244140625,0.71142578125,-3.76129150390625,2.20489501953125,-1.21307373046875,23.690354090354088,-65.82319902319902,39.433943833943836,-0.03564453125,2.0498046875,0.00830078125,-1.1749267578125,0.9765625,0.78582763671875,-77.21855921855922,18.742368742368743,-15.143833943833943
21:24.194,0.2041015625,0.15576171875,1.9677734375,1.4190673828125,-4.55474853515625,-45.99761962890625,-11.395360195360196,8.846398046398047,27.588766788766787,-1.81201171875,-0.01220703125,0.67138671875,-6.9122314453125,1.48773193359375,-1.5411376953125,23.99023199023199,-66.27301587301586,38.38437118437118,-0.0234375,2.06103515625,-0.009765625,-0.95367431640625,1.0528564453125,1.9683837890625,-77.06862026862026,19.34212454212454,-16.64322344322344
21:25.073,0.37890625,0.17529296875,2.0185546875,3.59344482421875,1.15966796875,35.25543212890625,-16.043467643467643,2.548962148962149,18.142612942612942,-1.84130859375,-0.001953125,0.5927734375,-3.6163330078125,-3.42559814453125,0.84686279296875,23.99023199023199,-66.27301587301586,38.38437118437118,-0.02587890625,2.0673828125,-0.00341796875,-1.28936767578125,0.6561279296875,1.068115234375,-77.06862026862026,19.34212454212454,-16.64322344322344
21:25.949,0.38916015625,0.4609375,1.9765625,-3.47900390625,-5.60760498046875,-21.44622802734375,-14.993894993894994,5.097924297924298,20.24175824175824,-1.8779296875,0.046875,0.6513671875,-2.6092529296875,0.60272216796875,2.716064453125,23.84029304029304,-65.37338217338217,38.234432234432234,-0.00830078125,2.0595703125,-0.0205078125,-0.43487548828125,1.35040283203125,1.70135498046875,-75.26935286935287,18.59242979242979,-16.343345543345542
21:26.876,0.37353515625,0.0615234375,2.12109375,-6.317138671875,-6.67572021484375,-6.7138671875,-10.945543345543346,10.945543345543346,26.539194139194137,-1.828125,0.00390625,0.75341796875,-3.99017333984375,2.09808349609375,0.11444091796875,24.14017094017094,-66.87277167277168,37.18485958485958,-0.01025390625,2.05712890625,0.0,-1.129150390625,0.8697509765625,1.27410888671875,-76.16898656898657,17.992673992673993,-15.443711843711844
21:27.802,0.556640625,0.19091796875,1.96435546875,-0.09918212890625,4.85992431640625,1.01470947265625,-13.644444444444444,5.097924297924298,19.791941391941393,-1.8447265625,-0.0009765625,0.6650390625,-4.23431396484375,-1.39617919921875,1.30462646484375,24.589987789987788,-65.67326007326007,38.98412698412698,-0.0380859375,2.0625,-0.01123046875,-0.6561279296875,2.227783203125,1.1749267578125,-75.71916971916971,20.39169719169719,-15.893528693528692
21:28.680,0.556640625,0.19091796875,1.96435546875,-6.35528564453125,-2.20489501953125,-25.87890625,-10.945543345543346,5.247863247863248,27.13894993894994,-1.84326171875,-0.00341796875,0.71923828125,-4.84466552734375,0.95367431640625,-0.02288818359375,24.88986568986569,-67.17264957264958,38.234432234432234,-0.08056640625,2.0546875,0.00244140625,-0.95367431640625,1.41143798828125,0.3509521484375,-76.76874236874237,17.093040293040293,-16.343345543345542
21:29.802,0.36279296875,0.36376953125,1.9404296875,-0.6866455078125,6.67572021484375,39.6575927734375,-16.043467643467643,3.598534798534798,20.24175824175824,-1.88525390625,0.017578125,0.62060546875,-0.11444091796875,-0.7476806640625,1.4495849609375,24.14017094017094,-67.17264957264958,38.98412698412698,-0.04248046875,2.0615234375,-0.02783203125,-1.1138916015625,0.49591064453125,2.43377685546875,-77.06862026862026,20.39169719169719,-13.494505494505495
21:30.727,0.4228515625,0.30810546875,2.0166015625,-6.06536865234375,-6.53076171875,-45.166015625,-12.444932844932845,8.846398046398047,26.83907203907204,-1.84228515625,-0.001953125,0.67236328125,-4.63104248046875,0.29754638671875,3.16619873046875,21.29133089133089,-64.62368742368741,35.835409035409036,-0.0693359375,2.0546875,0.001953125,-0.6866455078125,0.87738037109375,2.26593017578125,-76.61880341880341,19.49206349206349,-15.743589743589743
21:31.702,0.4228515625,0.30810546875,2.0166015625,1.8463134765625,11.83319091796875,35.92681884765625,-13.494505494505495,9.596092796092796,25.78949938949939,-1.8583984375,-0.0537109375,0.681640625,-4.638671875,1.39617919921875,-0.25177001953125,23.24053724053724,-65.82319902319902,38.084493284493284,-0.04541015625,2.05517578125,-0.00927734375,-1.15966796875,0.5950927734375,2.13623046875,-77.06862026862026,19.64200244200244,-14.544078144078144
21:32.580,0.171875,0.2177734375,1.998046875,1.8463134765625,11.83319091796875,35.92681884765625,-14.244200244200243,7.347008547008547,23.39047619047619,-1.8427734375,-0.04150390625,0.65625,-2.62451171875,0.03814697265625,1.3427734375,24.739926739926737,-65.52332112332113,38.38437118437118,-0.0390625,2.05517578125,-0.00732421875,-0.8544921875,0.5950927734375,1.50299072265625,-77.96825396825396,19.042246642246642,-16.193406593406593
21:33.408,0.2724609375,0.21142578125,2.02392578125,-1.35040283203125,1.45721435546875,0.4425048828125,-14.244200244200243,7.347008547008547,23.39047619047619,-1.8427734375,-0.04150390625,0.65625,-2.55584716796875,0.48828125,-1.38092041015625,23.84029304029304,-64.92356532356533,37.48473748473749,-0.0390625,2.05517578125,-0.00732421875,-0.58746337890625,0.41961669921875,3.01361083984375,-77.21855921855922,20.54163614163614,-16.49328449328449
21:34.335,0.1865234375,-0.12451171875,2.11474609375,-0.030517578125,23.41461181640625,8.9874267578125,-15.293772893772893,4.498168498168498,20.09181929181929,-1.89111328125,-0.01513671875,0.64990234375,-4.1351318359375,2.532958984375,3.90625,23.84029304029304,-66.12307692307692,36.135286935286935,-0.04052734375,2.04443359375,-0.00927734375,-1.24359130859375,1.220703125,2.86102294921875,-75.86910866910867,17.242979242979242,-14.394139194139193
21:35.163,0.4345703125,0.5078125,1.89892578125,-2.14385986328125,-10.59722900390625,-18.7835693359375,-16.043467643467643,2.548962148962149,19.49206349206349,-1.88671875,-0.02978515625,0.68310546875,-4.1351318359375,2.532958984375,3.90625,23.84029304029304,-66.12307692307692,36.135286935286935,-0.0029296875,2.06005859375,-0.01416015625,-1.24359130859375,1.220703125,2.86102294921875,-75.86910866910867,17.242979242979242,-14.394139194139193
21:35.992,0.0078125,0.078125,2.05615234375,1.220703125,-0.30517578125,-15.49530029296875,-12.894749694749695,9.296214896214895,27.438827838827837,-1.8388671875,-0.00341796875,0.69189453125,-4.12750244140625,0.48828125,0.5645751953125,22.19096459096459,-67.02271062271062,38.38437118437118,-0.01025390625,2.0693359375,-0.01220703125,-1.7547607421875,0.152587890625,0.6256103515625,-76.76874236874237,17.54285714285714,-15.593650793650793
21:36.870,0.25634765625,0.423828125,1.86865234375,-3.79180908203125,2.60162353515625,28.69415283203125,-14.843956043956043,6.297435897435897,20.09181929181929,-1.85986328125,0.017578125,0.60888671875,-2.54058837890625,-0.43487548828125,1.1138916015625,24.29010989010989,-67.02271062271062,40.18363858363858,-0.0283203125,2.06884765625,-0.00732421875,-0.6866455078125,1.35040283203125,2.2125244140625,-77.21855921855922,18.44249084249084,-15.743589743589743
21:37.698,0.25634765625,0.423828125,1.86865234375,4.32586669921875,0.40435791015625,-35.186767578125,-10.795604395604395,11.095482295482295,27.738705738705736,-1.8515625,-0.04345703125,0.6796875,3.2501220703125,2.89154052734375,-0.23651123046875,23.09059829059829,-65.67326007326007,36.435164835164834,0.01220703125,2.060546875,-0.00634765625,-0.87738037109375,-0.66375732421875,3.01361083984375,-78.11819291819292,17.842735042735043,-14.544078144078144
21:38.527,0.04833984375,0.275390625,2.01513671875,4.32586669921875,0.40435791015625,-35.186767578125,-14.244200244200243,9.895970695970696,22.04102564102564,-1.837890625,-0.0576171875,0.65966796875,-0.6866455078125,-0.74005126953125,1.06048583984375,24.739926739926737,-66.57289377289376,37.03492063492063,-0.0322265625,2.052734375,-0.015625,-0.25177001953125,0.2593994140625,3.11279296875,-75.41929181929181,19.49206349206349,-16.49328449328449
21:39.405,0.26708984375,0.2412109375,2.04052734375,0.4425048828125,8.23211669921875,57.586669921875,-14.244200244200243,9.895970695970696,22.04102564102564,-1.837890625,-0.0576171875,0.65966796875,-1.83868408203125,0.91552734375,1.50299072265625,24.29010989010989,-65.82319902319902,37.33479853479853,-0.0322265625,2.052734375,-0.015625,-0.80108642578125,0.69427490234375,0.31280517578125,-76.61880341880341,17.992673992673993,-15.143833943833943
21:40.233,0.28125,0.28173828125,1.97265625,-4.1351318359375,-1.47247314453125,-47.36328125,-13.194627594627594,10.645665445665445,24.44004884004884,-1.8466796875,-0.02783203125,0.6689453125,-1.83868408203125,0.91552734375,1.50299072265625,24.739926739926737,-65.52332112332113,38.084493284493284,-0.02490234375,2.056640625,-0.00439453125,-0.80108642578125,0.69427490234375,0.31280517578125,-76.91868131868132,19.042246642246642,-16.193406593406593
21:41.355,0.189453125,0.20751953125,2.02587890625,-0.396728515625,6.70623779296875,36.1785888671875,-13.194627594627594,6.297435897435897,26.539194139194137,-1.853515625,-0.0146484375,0.64501953125,-4.119873046875,1.30462646484375,2.9296875,24.29010989010989,-67.32258852258852,36.58510378510378,-0.07275390625,2.0478515625,-0.00146484375,-0.091552734375,1.8310546875,2.685546875,-76.31892551892551,20.39169719169719,-14.843956043956043
21:42.281,0.03662109375,0.27685546875,1.98291015625,-4.913330078125,-7.3394775390625,-44.28863525390625,-17.54285714285714,8.996336996336996,20.841514041514042,-1.8720703125,-0.0029296875,0.6728515625,1.21307373046875,0.457763671875,-1.0986328125,23.84029304029304,-67.47252747252747,37.48473748473749,-0.0673828125,2.05517578125,0.0107421875,-1.220703125,-0.6561279296875,0.213623046875,-77.51843711843712,19.64200244200244,-15.293772893772893
21:43.207,-0.138671875,-0.0302734375,2.072265625,-0.823974609375,9.063720703125,2.84576416015625,-15.443711843711844,12.594871794871795,22.19096459096459,-1.83544921875,-0.064453125,0.6904296875,1.21307373046875,0.457763671875,-1.0986328125,23.84029304029304,-67.47252747252747,37.48473748473749,-0.02734375,2.0576171875,-0.0029296875,-1.220703125,-0.6561279296875,0.213623046875,-77.51843711843712,19.34212454212454,-16.343345543345542
21:44.182,-0.21826171875,0.3203125,2.02880859375,-4.180908203125,10.91766357421875,9.521484375,-16.943101343101343,7.796825396825397,16.943101343101343,-1.88916015625,0.02001953125,0.63037109375,-4.57763671875,0.92315673828125,2.73895263671875,25.489621489621488,-65.52332112332113,36.285225885225884,-0.02099609375,2.05859375,-0.01318359375,-0.79345703125,1.1444091796875,1.70135498046875,-76.61880341880341,17.692796092796094,-16.49328449328449
21:45.060,-0.2783203125,0.046875,2.04296875,-0.12969970703125,-12.4969482421875,-14.923095703125,-12.294993894993894,14.694017094017093,25.639560439560437,-1.84033203125,-0.03662109375,0.62255859375,-0.8544921875,-0.84686279296875,-0.396728515625,24.29010989010989,-65.82319902319902,37.03492063492063,-0.0341796875,2.0576171875,-0.0087890625,-0.640869140625,0.18310546875,2.410888671875,-76.61880341880341,17.692796092796094,-16.49328449328449
21:45.937,0.00390625,0.5029296875,1.8583984375,-5.79833984375,7.77435302734375,49.44610595703125,-17.842735042735043,7.646886446886446,17.093040293040293,-1.8857421875,0.04736328125,0.58740234375,0.06866455078125,1.03759765625,-0.885009765625,22.79072039072039,-66.87277167277168,36.88498168498168,-0.02685546875,2.056640625,-0.00634765625,-1.007080078125,0.86212158203125,0.95367431640625,-77.51843711843712,19.34212454212454,-15.293772893772893
21:46.961,-0.15087890625,0.1748046875,2.015625,0.78582763671875,-0.79345703125,-17.31109619140625,-10.495726495726496,14.993894993894994,28.03858363858364,-1.85205078125,-0.02734375,0.62841796875,-3.50189208984375,0.7476806640625,0.25177001953125,22.34090354090354,-66.87277167277168,35.835409035409036,-0.0322265625,2.05810546875,-0.01220703125,-0.78582763671875,0.81634521484375,2.1514892578125,-77.21855921855922,17.242979242979242,-14.094261294261294
21:48.082,-0.02685546875,0.2353515625,2.01953125,-1.24359130859375,1.8310546875,0.2288818359375,-14.694017094017093,10.045909645909646,18.892307692307693,-1.85205078125,-0.03076171875,0.6005859375,-3.70025634765625,-0.7476806640625,1.220703125,25.489621489621488,-63.724053724053725,35.985347985347985,-0.01708984375,2.06201171875,-0.0185546875,-0.93841552734375,0.732421875,1.9073486328125,-76.76874236874237,20.69157509157509,-16.64322344322344
21:48.960,-0.078125,0.1162109375,1.97705078125,-0.7781982421875,0.0152587890625,-5.0506591796875,-14.244200244200243,14.244200244200243,19.64200244200244,-1.85302734375,-0.02685546875,0.63720703125,-1.1138916015625,0.54931640625,0.2593994140625,24.739926739926737,-66.57289377289376,37.03492063492063,-0.02685546875,2.05078125,-0.009765625,-0.8544921875,0.41961669921875,1.45721435546875,-76.76874236874237,18.142612942612942,-14.544078144078144
21:49.837,0.18310546875,0.44677734375,1.97509765625,-2.7923583984375,9.66644287109375,34.09576416015625,-16.043467643467643,10.045909645909646,15.143833943833943,-1.8720703125,-0.00439453125,0.607421875,-4.82940673828125,0.640869140625,-0.34332275390625,22.34090354090354,-61.624908424908426,35.835409035409036,-0.01123046875,2.05615234375,-0.0048828125,-1.25885009765625,0.67901611328125,1.68609619140625,-79.76752136752137,18.44249084249084,-15.143833943833943
21:50.812,0.150390625,0.30078125,2.04638671875,-1.45721435546875,-2.08282470703125,32.78350830078125,-12.444932844932845,13.794383394383393,24.739926739926737,-1.8720703125,-0.0439453125,0.64892578125,-3.18145751953125,-1.39617919921875,0.5645751953125,24.589987789987788,-64.92356532356533,35.38559218559219,-0.021484375,2.04833984375,-0.01416015625,-0.58746337890625,0.7476806640625,1.617431640625,-77.96825396825396,19.791941391941393,-15.443711843711844
21:51.641,0.150390625,0.30078125,2.04638671875,0.92315673828125,-6.134033203125,-40.06195068359375,-13.944322344322345,8.696459096459096,19.791941391941393,-1.85595703125,-0.00732421875,0.64990234375,-3.27301025390625,1.28936767578125,1.56402587890625,21.89108669108669,-64.47374847374847,33.13650793650793,-0.013671875,2.060546875,-0.01416015625,-0.86212158203125,0.89263916015625,1.495361328125,-77.06862026862026,18.892307692307693,-15.593650793650793
21:52.519,0.07421875,0.26904296875,2.00634765625,0.92315673828125,-6.134033203125,-40.06195068359375,-13.344566544566543,12.594871794871795,24.589987789987788,-1.86669921875,-0.02880859375,0.623046875,-2.78472900390625,-0.29754638671875,-0.030517578125,25.18974358974359,-66.42295482295482,36.435164835164834,-0.005859375,2.05712890625,0.0009765625,-1.15966796875,0.213623046875,3.1890869140625,-76.16898656898657,19.49206349206349,-15.443711843711844
21:53.396,-0.212890625,-0.14599609375,2.0859375,-1.88446044921875,10.33782958984375,7.05718994140625,-13.344566544566543,12.594871794871795,24.589987789987788,-1.86669921875,-0.02880859375,0.623046875,-1.5716552734375,-0.86212158203125,0.9765625,23.690354090354088,-61.17509157509157,33.43638583638584,-0.005859375,2.05712890625,0.0009765625,-1.0833740234375,0.40435791015625,0.66375732421875,-78.71794871794872,20.24175824175824,-14.094261294261294
21:54.225,0.07568359375,0.44091796875,2.1044921875,-6.64520263671875,-5.82122802734375,49.03411865234375,-15.893528693528692,7.796825396825397,13.944322344322345,-1.85107421875,-0.0029296875,0.61865234375,-1.5716552734375,-0.86212158203125,0.9765625,22.79072039072039,-67.17264957264958,38.234432234432234,-0.0166015625,2.05712890625,-0.0029296875,-1.0833740234375,0.40435791015625,0.66375732421875,-77.66837606837606,19.49206349206349,-15.743589743589743
21:55.102,-0.13525390625,0.181640625,2.0224609375,-0.54168701171875,4.669189453125,-0.72479248046875,-10.645665445665445,11.695238095238095,26.539194139194137,-1.87255859375,-0.01708984375,0.6201171875,-2.349853515625,-0.8544921875,0.2899169921875,21.59120879120879,-61.32503052503052,33.73626373626374,0.00048828125,2.05224609375,-0.01318359375,-0.78582763671875,0.80108642578125,1.16729736328125,-77.21855921855922,19.49206349206349,-15.743589743589743
21:56.077,-0.140625,0.26171875,2.00537109375,2.23541259765625,-3.4942626953125,-28.38134765625,-17.39291819291819,10.945543345543346,12.894749694749695,-1.861328125,-0.01123046875,0.67529296875,-3.3111572265625,0.48065185546875,0.9002685546875,21.59120879120879,-61.32503052503052,33.73626373626374,-0.009765625,2.05859375,-0.0166015625,-1.15203857421875,0.8544921875,2.25830078125,-77.21855921855922,19.49206349206349,-15.743589743589743
21:57.004,-0.0185546875,-0.0322265625,2.05224609375,-10.82611083984375,8.514404296875,27.0843505859375,-15.293772893772893,13.794383394383393,19.34212454212454,-1.7900390625,-0.0517578125,0.71630859375,0.1983642578125,1.07574462890625,0.03814697265625,23.690354090354088,-64.47374847374847,37.03492063492063,0.0009765625,2.0537109375,-0.00146484375,-0.3814697265625,1.5869140625,1.64031982421875,-76.31892551892551,18.59242979242979,-15.293772893772893
21:57.833,0.45068359375,0.2041015625,1.9453125,-1.0833740234375,-1.15203857421875,-29.02984619140625,-11.395360195360196,10.645665445665445,17.692796092796094,-1.8701171875,0.033203125,0.59033203125,-7.415771484375,4.4708251953125,1.8157958984375,22.49084249084249,-60.425396825396824,36.285225885225884,-0.02490234375,2.0556640625,0.00244140625,-0.58746337890625,2.1209716796875,1.39617919921875,-77.66837606837606,17.992673992673993,-15.143833943833943
21:58.661,0.45068359375,0.2041015625,1.9453125,-0.72479248046875,-7.4005126953125,30.5328369140625,-10.945543345543346,8.546520146520146,27.588766788766787,-1.853515625,0.01220703125,0.65576171875,-1.1749267578125,-2.655029296875,2.18963623046875,22.94065934065934,-66.57289377289376,35.23565323565323,0.00244140625,2.05419921875,-0.01171875,-1.83868408203125,0.57220458984375,-0.244140625,-76.61880341880341,19.042246642246642,-16.193406593406593
21:59.687,0.36181640625,0.1591796875,2.06982421875,-8.2550048828125,-20.14923095703125,-34.64508056640625,-13.644444444444444,2.998778998778999,15.743589743589743,-1.8291015625,-0.046875,0.69921875,-4.180908203125,2.2430419921875,4.0283203125,22.04102564102564,-59.07594627594627,35.38559218559219,-0.0224609375,2.0517578125,-0.00830078125,-0.54168701171875,1.07574462890625,3.05938720703125,-76.01904761904761,17.842735042735043,-16.943101343101343
22:00.514,0.427734375,0.248046875,2.0087890625,-8.2550048828125,-20.14923095703125,-34.64508056640625,-13.644444444444444,2.998778998778999,15.743589743589743,-1.8095703125,-0.04638671875,0.7265625,-3.19671630859375,-0.46539306640625,-0.86212158203125,23.690354090354088,-67.77240537240537,37.634676434676436,-0.03857421875,2.05517578125,-0.01123046875,-1.13677978515625,0.80108642578125,1.42669677734375,-75.71916971916971,20.69157509157509,-16.943101343101343
22:01.440,0.22509765625,0.10595703125,1.97900390625,1.41143798828125,12.22991943359375,21.79718017578125,-9.895970695970696,7.347008547008547,27.588766788766787,-1.82763671875,-0.05517578125,0.703125,-6.28662109375,-2.044677734375,5.706787109375,23.84029304029304,-65.67326007326007,42.73260073260073,-0.0078125,2.0546875,-0.00634765625,-0.99945068359375,0.95367431640625,1.91497802734375,-76.91868131868132,17.242979242979242,-16.193406593406593
22:02.269,0.3916015625,0.45068359375,1.94482421875,-4.06646728515625,-10.99395751953125,-17.1966552734375,-12.894749694749695,4.798046398046398,21.59120879120879,-1.82763671875,-0.05517578125,0.703125,-6.28662109375,-2.044677734375,5.706787109375,25.489621489621488,-67.02271062271062,38.084493284493284,-0.0078125,2.0546875,-0.00634765625,-0.99945068359375,0.95367431640625,1.91497802734375,-77.51843711843712,18.892307692307693,-15.893528693528692
22:03.097,0.25634765625,-0.056640625,1.98828125,0.5035400390625,5.9051513671875,-0.35858154296875,-10.795604395604395,8.996336996336996,28.338461538461537,-1.8154296875,-0.06201171875,0.6923828125,-3.92913818359375,0.69427490234375,0.46539306640625,25.489621489621488,-67.02271062271062,38.084493284493284,-0.01513671875,2.05859375,-0.00927734375,-0.90789794921875,0.3662109375,2.7008056640625,-78.86788766788767,18.142612942612942,-14.544078144078144
22:04.121,0.3310546875,0.33642578125,1.99609375,-4.40216064453125,-0.92315673828125,45.89080810546875,-14.694017094017093,3.2986568986568985,20.54163614163614,-1.8349609375,-0.16796875,0.5458984375,-1.8310546875,-3.13568115234375,-1.19781494140625,25.639560439560437,-66.87277167277168,39.28400488400488,-0.00537109375,2.05126953125,-0.00048828125,-1.4190673828125,0.74005126953125,0.09918212890625,-78.86788766788767,18.142612942612942,-14.544078144078144
22:04.999,0.31982421875,0.22216796875,1.99755859375,-6.8359375,-5.401611328125,-38.71917724609375,-10.795604395604395,9.746031746031745,27.738705738705736,-1.81787109375,-0.11376953125,0.68896484375,1.739501953125,3.3721923828125,1.800537109375,24.29010989010989,-65.82319902319902,35.53553113553114,0.0283203125,2.05126953125,-0.0126953125,-0.83160400390625,0.26702880859375,2.0904541015625,-77.96825396825396,20.54163614163614,-15.743589743589743
22:05.876,0.271484375,0.1201171875,2.00634765625,0.640869140625,5.51605224609375,39.75677490234375,-12.444932844932845,8.546520146520146,25.78949938949939,-1.8251953125,-0.07373046875,0.6923828125,-1.7242431640625,-0.43487548828125,-1.8310546875,24.88986568986569,-65.67326007326007,38.53431013431013,0.01708984375,2.0615234375,-0.03076171875,-1.42669677734375,0.9307861328125,0.5340576171875,-76.76874236874237,17.842735042735043,-16.64322344322344
22:06.754,0.28759765625,0.54541015625,1.92822265625,-7.04193115234375,-25.45166015625,-43.06793212890625,-13.794383394383393,7.347008547008547,22.79072039072039,-1.86865234375,-0.04638671875,0.62353515625,-8.1024169921875,2.67791748046875,5.77545166015625,24.29010989010989,-65.52332112332113,39.13406593406593,-0.00048828125,2.06005859375,-0.00634765625,-0.87738037109375,2.02178955078125,1.07574462890625,-77.06862026862026,17.842735042735043,-15.893528693528692
22:07.681,0.28759765625,0.54541015625,1.92822265625,-0.03814697265625,12.22991943359375,-0.6561279296875,-9.596092796092796,9.895970695970696,28.488400488400487,-1.8671875,-0.10888671875,0.62744140625,-2.86102294921875,-0.518798828125,-1.708984375,24.14017094017094,-66.42295482295482,37.18485958485958,0.00341796875,2.0595703125,-0.01416015625,-0.58746337890625,0.4730224609375,2.76947021484375,-77.06862026862026,18.59242979242979,-14.544078144078144
22:08.509,0.27734375,-0.1513671875,2.00732421875,-0.03814697265625,12.22991943359375,-0.6561279296875,-9.596092796092796,9.895970695970696,28.488400488400487,-1.9072265625,-0.0625,0.57373046875,-2.9449462890625,3.12042236328125,4.09698486328125,26.23931623931624,-64.02393162393162,40.18363858363858,0.02197265625,2.05224609375,-0.02001953125,-0.823974609375,0.885009765625,1.96075439453125,-77.06862026862026,17.093040293040293,-16.943101343101343
22:09.337,0.22705078125,0.5009765625,1.9970703125,-5.68389892578125,14.07623291015625,21.87347412109375,-14.694017094017093,3.598534798534798,19.49206349206349,-1.9072265625,-0.0625,0.57373046875,-2.0599365234375,-2.01416015625,-0.34332275390625,22.49084249084249,-67.02271062271062,35.985347985347985,0.02197265625,2.05224609375,-0.02001953125,-0.93841552734375,0.77056884765625,1.59454345703125,-75.71916971916971,19.34212454212454,-15.593650793650793
22:10.166,0.29052734375,0.072265625,2.01318359375,-0.9613037109375,0.946044921875,2.40325927734375,-9.895970695970696,9.146275946275946,30.887423687423688,-1.849609375,-0.0654296875,0.64013671875,-2.0599365234375,-2.01416015625,-0.34332275390625,22.49084249084249,-67.02271062271062,35.985347985347985,0.00439453125,2.05908203125,-0.01220703125,-0.93841552734375,0.77056884765625,1.59454345703125,-75.71916971916971,19.34212454212454,-15.593650793650793
22:11.044,0.3095703125,0.31884765625,1.99365234375,-5.340576171875,-16.05224609375,-39.69573974609375,-16.64322344322344,7.347008547008547,21.741147741147742,-1.8603515625,-0.09326171875,0.6630859375,-4.2877197265625,1.94549560546875,2.899169921875,25.93943833943834,-66.87277167277168,37.18485958485958,0.02685546875,2.06298828125,-0.01123046875,-1.03759765625,0.946044921875,1.76239013671875,-77.21855921855922,19.042246642246642,-15.443711843711844
22:11.921,0.3193359375,0.08740234375,1.99951171875,0.3814697265625,0.6103515625,-0.6103515625,-11.995115995115995,9.895970695970696,28.93821733821734,-1.845703125,-0.080078125,0.638671875,-1.6326904296875,-0.41961669921875,0.7781982421875,24.88986568986569,-66.42295482295482,38.234432234432234,0.00927734375,2.05419921875,-0.01513671875,-1.251220703125,0.518798828125,1.68609619140625,-77.06862026862026,18.142612942612942,-16.943101343101343
22:12.750,0.29443359375,0.3310546875,2.1171875,-3.08990478515625,7.6141357421875,-41.3665771484375,-14.993894993894994,5.397802197802197,20.841514041514042,-1.8447265625,-0.08349609375,0.61767578125,0.25177001953125,1.9989013671875,5.57708740234375,25.03980463980464,-65.82319902319902,38.38437118437118,0.0244140625,2.0615234375,-0.01220703125,-1.3580322265625,0.5035400390625,0.69427490234375,-76.16898656898657,18.742368742368743,-15.443711843711844
22:13.677,0.29443359375,0.3310546875,2.1171875,-0.6256103515625,-2.0294189453125,7.965087890625,-13.194627594627594,6.747252747252747,23.09059829059829,-1.8388671875,-0.080078125,0.64111328125,-3.21197509765625,-2.15911865234375,-0.92315673828125,25.18974358974359,-66.87277167277168,38.98412698412698,0.0078125,2.05712890625,-0.01025390625,-1.0986328125,0.1373291015625,2.22015380859375,-77.81831501831502,17.54285714285714,-15.893528693528692
22:14.554,0.29052734375,0.04931640625,2.00732421875,-0.6256103515625,-2.0294189453125,7.965087890625,-14.244200244200243,4.947985347985348,22.49084249084249,-1.87109375,-0.07666015625,0.5966796875,-7.57598876953125,-2.044677734375,2.5634765625,25.03980463980464,-66.27301587301586,37.33479853479853,0.0263671875,2.05810546875,-0.0166015625,-0.5950927734375,0.80108642578125,1.2359619140625,-76.61880341880341,18.742368742368743,-15.743589743589743
22:15.382,0.34228515625,0.27490234375,1.98779296875,-3.80706787109375,-12.35198974609375,-29.70123291015625,-14.244200244200243,4.947985347985348,22.49084249084249,-1.84228515625,-0.0703125,0.66455078125,-3.08990478515625,-1.3885498046875,0.11444091796875,24.739926739926737,-65.22344322344323,37.634676434676436,0.00537109375,2.0537109375,-0.02294921875,-1.24359130859375,0.14495849609375,2.29644775390625,-77.81831501831502,18.59242979242979,-16.64322344322344
22:16.309,0.22705078125,0.001953125,2.04052734375,-0.54931640625,2.532958984375,2.87628173828125,-8.846398046398047,10.645665445665445,28.188522588522588,-1.84228515625,-0.0703125,0.66455078125,-3.08990478515625,-1.3885498046875,0.11444091796875,24.589987789987788,-67.47252747252747,38.98412698412698,0.00537109375,2.0537109375,-0.02294921875,-1.24359130859375,0.14495849609375,2.29644775390625,-77.81831501831502,18.59242979242979,-15.593650793650793
22:17.235,0.1494140625,0.326171875,2.072265625,-4.11224365234375,-5.21087646484375,8.209228515625,-14.394139194139193,6.147496947496947,20.841514041514042,-1.8603515625,-0.0888671875,0.66162109375,-1.4495849609375,0.30517578125,0.823974609375,24.739926739926737,-65.52332112332113,38.38437118437118,0.02685546875,2.0576171875,0.00048828125,-0.93841552734375,0.69427490234375,1.678466796875,-75.71916971916971,18.892307692307693,-16.64322344322344
22:18.064,0.33984375,0.08544921875,2.02001953125,0.95367431640625,1.5411376953125,16.38031005859375,-10.945543345543346,10.945543345543346,28.188522588522588,-1.83251953125,-0.10302734375,0.646484375,-3.7994384765625,-2.05230712890625,-0.75531005859375,24.739926739926737,-65.52332112332113,38.38437118437118,0.01123046875,2.05322265625,-0.0087890625,-1.28936767578125,0.3662109375,1.953125,-75.71916971916971,18.892307692307693,-16.64322344322344
22:18.893,0.470703125,0.38427734375,1.9375,-1.71661376953125,-5.126953125,17.58575439453125,-14.843956043956043,6.297435897435897,22.04102564102564,-1.86181640625,-0.10595703125,0.67919921875,-4.4097900390625,-0.06866455078125,0.38909912109375,23.39047619047619,-67.17264957264958,39.28400488400488,0.02880859375,2.0576171875,-0.02392578125,-1.0833740234375,0.70953369140625,1.41143798828125,-76.31892551892551,17.54285714285714,-15.893528693528692
22:19.721,0.39892578125,0.1728515625,1.99365234375,-1.068115234375,1.42669677734375,-0.091552734375,-13.344566544566543,9.296214896214895,26.689133089133087,-1.8349609375,-0.10107421875,0.65673828125,-2.63214111328125,-0.12969970703125,0.8544921875,26.539194139194137,-68.82197802197803,39.883760683760684,0.03369140625,2.05615234375,-0.02392578125,-0.5950927734375,2.49481201171875,0.89263916015625,-77.96825396825396,19.042246642246642,-16.193406593406593
22:20.599,0.39892578125,0.1728515625,1.99365234375,-1.068115234375,1.42669677734375,-0.091552734375,-12.744810744810744,8.846398046398047,25.78949938949939,-1.8359375,-0.1318359375,0.6220703125,-1.2664794921875,-0.48065185546875,2.4566650390625,25.78949938949939,-67.32258852258852,37.634676434676436,0.02197265625,2.05419921875,-0.0029296875,-1.31988525390625,0.30517578125,1.56402587890625,-75.86910866910867,18.44249084249084,-16.49328449328449
22:21.525,0.33349609375,0.2373046875,2.00341796875,-1.5716552734375,3.34930419921875,-15.63262939453125,-14.544078144078144,5.997557997557998,21.44126984126984,-1.873046875,-0.07470703125,0.63525390625,-2.3193359375,-2.96783447265625,-1.64794921875,24.14017094017094,-64.92356532356533,38.53431013431013,0.02490234375,2.060546875,-0.013671875,-0.9918212890625,0.77056884765625,1.74713134765625,-78.11819291819292,17.842735042735043,-15.893528693528692
22:22.403,0.58349609375,0.306640625,1.94140625,6.59942626953125,18.4173583984375,33.63800048828125,-14.544078144078144,5.997557997557998,21.44126984126984,-1.873046875,-0.07470703125,0.63525390625,-2.227783203125,0.1983642578125,2.2735595703125,25.03980463980464,-66.57289377289376,37.03492063492063,0.02490234375,2.060546875,-0.013671875,-1.30462646484375,0.6103515625,1.7242431640625,-76.01904761904761,18.59242979242979,-16.343345543345542
22:23.231,0.39453125,0.20166015625,2.0390625,0.77056884765625,3.2958984375,-24.23858642578125,-12.894749694749695,8.696459096459096,26.689133089133087,-1.8330078125,-0.1201171875,0.61669921875,-2.227783203125,0.1983642578125,2.2735595703125,23.690354090354088,-66.27301587301586,38.68424908424908,0.03369140625,2.06103515625,-0.01611328125,-1.30462646484375,0.6103515625,1.7242431640625,-77.81831501831502,19.34212454212454,-15.893528693528692
22:24.109,0.27197265625,0.1416015625,2.02197265625,2.61688232421875,3.1890869140625,29.1900634765625,-15.293772893772893,7.047130647130647,21.741147741147742,-1.83740234375,-0.0947265625,0.7021484375,-2.81524658203125,-3.68499755859375,-0.823974609375,23.690354090354088,-66.27301587301586,38.68424908424908,0.01806640625,2.0556640625,-0.0107421875,-1.10626220703125,0.70953369140625,2.349853515625,-77.81831501831502,19.34212454212454,-15.893528693528692
22:24.986,0.26513671875,0.328125,1.9453125,-3.60107421875,-0.579833984375,-17.7764892578125,-14.544078144078144,7.796825396825397,23.09059829059829,-1.8642578125,-0.06640625,0.607421875,-3.0059814453125,-1.70135498046875,2.7618408203125,26.23931623931624,-66.27301587301586,38.68424908424908,0.03271484375,2.0576171875,-0.00146484375,-0.7476806640625,1.10626220703125,1.73187255859375,-76.76874236874237,18.142612942612942,-14.843956043956043
22:25.961,0.44677734375,0.263671875,1.8798828125,1.89208984375,-22.77374267578125,20.82061767578125,-12.444932844932845,10.945543345543346,27.588766788766787,-1.8388671875,-0.11572265625,0.64013671875,-3.82232666015625,-0.7781982421875,0.335693359375,25.639560439560437,-66.87277167277168,36.88498168498168,0.03076171875,2.05859375,-0.025390625,-1.24359130859375,0.31280517578125,2.99835205078125,-75.26935286935287,16.343345543345542,-15.593650793650793
22:26.888,0.416015625,0.47314453125,1.99365234375,-1.1444091796875,2.1514892578125,-6.8817138671875,-13.794383394383393,4.947985347985348,22.04102564102564,-1.86669921875,-0.1103515625,0.681640625,-2.81524658203125,0.885009765625,2.166748046875,24.88986568986569,-66.42295482295482,37.48473748473749,0.0556640625,2.06591796875,-0.0126953125,-1.09100341796875,1.31988525390625,1.1444091796875,-77.81831501831502,19.34212454212454,-18.44249084249084
22:27.814,0.3505859375,-0.07080078125,2.0478515625,0.20599365234375,1.16729736328125,-37.3687744140625,-8.546520146520146,11.395360195360196,28.188522588522588,-1.82666015625,-0.10595703125,0.63916015625,-3.9825439453125,1.18255615234375,-1.38092041015625,26.389255189255188,-65.37338217338217,37.48473748473749,0.046875,2.056640625,-0.0166015625,-0.0152587890625,0.91552734375,3.15093994140625,-78.71794871794872,16.193406593406593,-17.242979242979242
22:28.642,0.3505859375,-0.07080078125,2.0478515625,6.64520263671875,9.04083251953125,49.4537353515625,-14.694017094017093,6.147496947496947,21.29133089133089,-1.8515625,-0.05224609375,0.61669921875,-2.227783203125,-2.3040771484375,-1.7242431640625,26.23931623931624,-64.47374847374847,36.58510378510378,0.03466796875,2.05224609375,-0.01025390625,-1.03759765625,0.8392333984375,2.28118896484375,-77.06862026862026,18.892307692307693,-17.39291819291819
22:29.569,0.39794921875,0.427734375,1.93310546875,-7.80487060546875,1.8157958984375,-45.6695556640625,-11.695238095238095,7.047130647130647,26.83907203907204,-1.84716796875,-0.087890625,0.66015625,-0.9307861328125,0.60272216796875,1.6937255859375,27.288888888888888,-66.27301587301586,36.58510378510378,0.07470703125,2.0576171875,-0.0166015625,-0.99945068359375,1.007080078125,0.9307861328125,-77.21855921855922,17.692796092796094,-17.842735042735043
22:30.593,0.45166015625,0.32373046875,1.97607421875,-0.84686279296875,4.96673583984375,-3.99017333984375,-8.996336996336996,8.246642246642246,26.689133089133087,-1.8681640625,-0.0712890625,0.64013671875,-2.655029296875,-1.708984375,0.06866455078125,25.639560439560437,-63.873992673992674,36.435164835164834,0.044921875,2.05712890625,-0.02197265625,-0.9307861328125,0.83160400390625,1.2969970703125,-78.41807081807082,17.242979242979242,-15.743589743589743
22:31.616,0.4453125,0.20703125,1.98681640625,0.579833984375,9.10186767578125,-32.49359130859375,-13.194627594627594,3.4485958485958483,24.44004884004884,-1.8505859375,-0.12890625,0.6787109375,-3.66973876953125,-0.91552734375,2.716064453125,24.14017094017094,-68.22222222222221,39.583882783882785,0.0908203125,2.0576171875,-0.02197265625,-0.98419189453125,0.38909912109375,2.0294189453125,-77.66837606837606,16.193406593406593,-17.54285714285714
22:32.640,0.40234375,0.15673828125,1.97802734375,4.791259765625,5.72967529296875,35.980224609375,-13.494505494505495,10.195848595848595,22.04102564102564,-1.83642578125,-0.05615234375,0.59375,-2.93731689453125,-1.27410888671875,-1.861572265625,23.24053724053724,-65.52332112332113,35.23565323565323,0.04736328125,2.0595703125,-0.009765625,-0.3662109375,-0.06866455078125,2.1209716796875,-78.11819291819292,17.54285714285714,-14.843956043956043
