time,hand_accelerometer_x,hand_accelerometer_y,hand_accelerometer_z,hand_gyroscope_x,hand_gyroscope_y,hand_gyroscope_z,hand_magnetometer_x,hand_magnetometer_y,hand_magnetometer_z,ankle_accelerometer_x,ankle_accelerometer_y,ankle_accelerometer_z,ankle_gyroscope_x,ankle_gyroscope_y,ankle_gyroscope_z,ankle_magnetometer_x,ankle_magnetometer_y,ankle_magnetometer_z,chest_accelerometer_x,chest_accelerometer_y,chest_accelerometer_z,chest_gyroscope_x,chest_gyroscope_y,chest_gyroscope_z,chest_magnetometer_x,chest_magnetometer_y,chest_magnetometer_z
23:47.501,0.52880859375,1.93994140625,0.43896484375,1.3885498046875,9.51385498046875,2.899169921875,-33.28644688644688,6.297435897435897,-33.88620268620269,-1.78173828125,-0.20703125,0.66943359375,5.34820556640625,-0.5950927734375,-7.78961181640625,9.146275946275946,-62.52454212454212,26.83907203907204,-0.275390625,2.1328125,0.439453125,-55.0384521484375,16.4031982421875,18.22662353515625,-53.078388278388275,20.24175824175824,26.08937728937729
23:48.329,1.0458984375,1.49169921875,0.19189453125,-16.4947509765625,-4.5013427734375,4.791259765625,-33.58632478632479,9.146275946275946,-31.787057387057384,-1.8974609375,0.185546875,0.51416015625,8.07952880859375,-3.80706787109375,-5.279541015625,10.495726495726496,-61.32503052503052,27.288888888888888,0.08154296875,2.06640625,-0.37939453125,50.31585693359375,-13.85498046875,-16.05224609375,-46.93089133089133,24.88986568986569,27.13894993894994
23:49.304,0.55078125,1.91357421875,0.3359375,12.53509521484375,-9.52911376953125,10.8184814453125,-27.588766788766787,6.297435897435897,-20.841514041514042,-1.9033203125,-0.12744140625,0.53515625,-101.67694091796875,-14.27459716796875,44.71588134765625,16.793162393162394,-62.97435897435897,26.08937728937729,-0.13330078125,1.869140625,-0.39501953125,76.21002197265625,27.76336669921875,50.2166748046875,-39.433943833943836,32.536752136752135,14.244200244200243
23:50.231,0.77294921875,1.59619140625,-0.11328125,54.351806640625,127.75421142578125,-7.9803466796875,-42.88253968253968,15.743589743589743,-28.188522588522588,-1.95166015625,0.474609375,-0.0849609375,-137.7410888671875,-2.40325927734375,10.162353515625,14.544078144078144,-56.676923076923075,28.93821733821734,-0.462890625,2.3173828125,0.18896484375,-18.45550537109375,23.223876953125,-62.62969970703125,-67.17264957264958,40.033699633699634,-18.892307692307693
23:51.059,0.77294921875,1.59619140625,-0.11328125,28.167724609375,53.1768798828125,-30.0750732421875,-58.026373626373626,-4.1982905982905985,-72.87032967032967,-1.9462890625,-0.32275390625,0.61669921875,-50.04119873046875,4.57000732421875,6.35528564453125,1.9492063492063492,-49.77973137973138,15.143833943833943,0.72607421875,2.234375,-0.14208984375,65.5059814453125,60.14251708984375,-7.36236572265625,-56.526984126984125,32.686691086691084,-31.637118437118435
23:51.986,0.66455078125,1.9970703125,0.3076171875,28.167724609375,53.1768798828125,-30.0750732421875,-34.336019536019535,-19.941880341880342,-28.338461538461537,-2.06884765625,-0.1064453125,0.25537109375,32.66143798828125,-8.41522216796875,-9.1705322265625,0.5997557997557997,-64.92356532356533,50.52942612942613,-0.57177734375,2.39599609375,-0.60498046875,-223.18267822265625,39.4744873046875,60.3485107421875,-52.32869352869353,-8.096703296703296,39.733821733821735
23:52.863,0.38916015625,2.0244140625,0.31494140625,1.59454345703125,-23.88763427734375,-6.988525390625,-34.336019536019535,-19.941880341880342,-28.338461538461537,-1.83837890625,0.01708984375,0.5419921875,-22.7203369140625,6.23321533203125,-1.01470947265625,-0.4498168498168498,-67.47252747252747,51.279120879120875,-0.328125,2.1806640625,-0.45361328125,60.70709228515625,3.37982177734375,-29.35028076171875,-47.230769230769226,9.146275946275946,14.694017094017093
23:53.741,0.7333984375,1.87841796875,0.21533203125,22.85003662109375,46.600341796875,28.4423828125,-38.68424908424908,-11.695238095238095,-42.13284493284493,-1.83837890625,0.01708984375,0.5419921875,-149.84130859375,-8.2855224609375,41.20635986328125,3.7484737484737485,-68.82197802197803,60.57533577533577,-2.6630859375,2.6533203125,0.3408203125,1.73187255859375,90.00396728515625,16.62445068359375,-75.41929181929181,7.197069597069596,-9.895970695970696
23:54.716,0.984375,1.73486328125,0.11669921875,46.783447265625,136.9781494140625,35.2020263671875,-15.443711843711844,-19.791941391941393,-4.947985347985348,-1.947265625,-0.12158203125,0.27880859375,1.52587890625,2.46429443359375,-21.270751953125,26.389255189255188,-73.47008547008546,65.97313797313797,-2.6630859375,2.6533203125,0.3408203125,39.84832763671875,46.1883544921875,-97.51129150390625,2.848840048840049,56.826862026862024,74.96947496947497
23:55.593,1.505859375,0.41748046875,1.072265625,13.5040283203125,95.05462646484375,69.305419921875,-12.744810744810744,-3.598534798534798,14.544078144078144,-1.90869140625,0.45166015625,0.49462890625,1.52587890625,2.46429443359375,-21.270751953125,15.293772893772893,-66.27301587301586,19.49206349206349,0.6142578125,2.40576171875,-1.41943359375,24.60479736328125,-53.67279052734375,1.2359619140625,4.798046398046398,50.37948717948718,58.77606837606837
23:56.617,0.99755859375,1.16552734375,0.88037109375,115.71502685546875,-40.73333740234375,-73.28033447265625,-21.741147741147742,-10.195848595848595,-1.9492063492063492,-2.44482421875,-0.24755859375,0.4384765625,2.08282470703125,-39.87884521484375,0.26702880859375,15.293772893772893,-66.27301587301586,19.49206349206349,0.212890625,2.00927734375,-0.01904296875,24.60479736328125,-53.67279052734375,1.2359619140625,-56.826862026862024,28.03858363858364,21.741147741147742
23:57.446,0.3125,2.115234375,0.2685546875,-38.51318359375,6.18743896484375,95.58868408203125,-27.288888888888888,-2.548962148962149,0.8996336996336995,-2.0029296875,-0.26513671875,0.236328125,-11.98577880859375,-8.026123046875,11.31439208984375,16.793162393162394,-61.924786324786325,29.987789987789988,-0.158203125,2.5458984375,-0.79638671875,-242.6300048828125,53.3447265625,23.49090576171875,-56.826862026862024,28.03858363858364,21.741147741147742
23:58.323,1.1533203125,1.64306640625,0.076171875,-10.67352294921875,-70.59478759765625,-25.58135986328125,-34.635897435897434,11.995115995115995,-18.892307692307693,-1.814453125,0.05322265625,0.43310546875,-1.068115234375,4.87518310546875,-10.81085205078125,25.639560439560437,-64.17387057387057,39.28400488400488,0.0810546875,2.1015625,-0.3330078125,46.38671875,-12.15362548828125,-16.77703857421875,-40.48351648351648,43.03247863247863,12.894749694749695
23:59.201,0.87890625,1.92626953125,0.2236328125,49.15618896484375,163.70391845703125,36.1480712890625,-45.431501831501826,3.2986568986568985,-28.488400488400487,-1.91259765625,-0.1328125,0.4912109375,-118.99566650390625,-2.899169921875,37.841796875,17.992673992673993,-60.87521367521367,32.98656898656898,-1.353515625,2.0107421875,0.0361328125,22.05657958984375,6.7138671875,34.942626953125,-49.329914529914525,39.13406593406593,-0.29987789987789987
24:00.029,0.87890625,1.92626953125,0.2236328125,-18.27239990234375,31.97479248046875,59.9822998046875,-58.77606837606837,11.845177045177044,-53.078388278388275,-1.939453125,0.29248046875,0.47509765625,-42.236328125,0.2593994140625,-17.608642578125,12.594871794871795,-53.228327228327224,30.437606837606836,-0.07763671875,2.3896484375,0.05517578125,6.43157958984375,32.3944091796875,-88.53912353515625,-75.41929181929181,16.64322344322344,-49.329914529914525
24:00.956,0.61279296875,2.04296875,-0.15283203125,-18.27239990234375,31.97479248046875,59.9822998046875,-55.92722832722833,-16.343345543345542,-49.62979242979243,-2.09765625,-0.1943359375,0.7578125,-7.26318359375,-15.48004150390625,6.30950927734375,-6.447374847374848,-55.32747252747252,37.33479853479853,-0.1728515625,2.04736328125,0.01806640625,42.70172119140625,24.63531494140625,-0.5645751953125,-76.16898656898657,15.443711843711844,-50.67936507936508
24:01.882,0.38037109375,1.94775390625,0.396484375,12.16888427734375,40.252685546875,13.42010498046875,-55.92722832722833,-16.343345543345542,-49.62979242979243,-1.99755859375,-0.45361328125,0.0048828125,29.33502197265625,-10.88714599609375,-5.91278076171875,2.6989010989010986,-63.724053724053725,59.825641025641026,-0.873046875,1.89794921875,-0.5458984375,-181.84661865234375,23.49090576171875,81.97784423828125,-61.774847374847376,-4.048351648351648,35.23565323565323
24:02.857,0.201171875,1.89892578125,0.2001953125,-33.294677734375,-99.1973876953125,-0.37384033203125,-35.835409035409036,-15.143833943833943,-28.188522588522588,-1.8603515625,0.177734375,0.4990234375,-19.4549560546875,7.2174072265625,10.894775390625,4.648107448107448,-67.17264957264958,55.47741147741147,0.08837890625,2.07666015625,-0.25537109375,55.64117431640625,16.48712158203125,-17.730712890625,-52.32869352869353,-1.4993894993894994,17.39291819291819
24:03.734,0.650390625,1.87353515625,0.14208984375,2.6092529296875,-14.16015625,30.84564208984375,-35.835409035409036,-15.143833943833943,-28.188522588522588,-1.8603515625,0.177734375,0.4990234375,-112.4114990234375,-20.5535888671875,47.149658203125,2.249084249084249,-68.52210012210011,60.57533577533577,0.07373046875,1.99853515625,0.1328125,-3.50189208984375,36.49139404296875,28.06854248046875,-50.37948717948718,5.847619047619047,17.242979242979242
24:04.856,1.03515625,1.857421875,0.33447265625,58.1207275390625,117.2943115234375,4.43267822265625,-15.893528693528692,-12.894749694749695,11.845177045177044,-2.04833984375,0.2861328125,0.60888671875,-3.50189208984375,7.6141357421875,-7.0037841796875,21.29133089133089,-70.17142857142856,69.87155067155066,-0.6669921875,2.22314453125,-1.2529296875,97.96905517578125,249.99237060546875,-146.50726318359375,-54.727716727716725,35.53553113553114,78.26813186813186
24:05.831,0.39794921875,2.39208984375,-0.21728515625,-22.2015380859375,-54.5501708984375,-10.4217529296875,-15.893528693528692,-12.894749694749695,11.845177045177044,-2.04833984375,0.2861328125,0.60888671875,-23.62823486328125,-6.439208984375,13.3514404296875,27.438827838827837,-66.12307692307692,43.78217338217338,-0.05517578125,2.15576171875,-0.11572265625,40.58837890625,-0.19073486328125,-8.43048095703125,-34.635897435897434,59.22588522588522,32.386813186813185
24:06.659,0.8359375,2.40771484375,0.0927734375,23.62823486328125,167.12188720703125,4.730224609375,-29.83785103785104,18.29255189255189,-11.845177045177044,-1.9609375,0.41552734375,0.181640625,-23.62823486328125,-6.439208984375,13.3514404296875,17.093040293040293,-62.224664224664224,37.03492063492063,-0.05517578125,2.15576171875,-0.11572265625,-188.39263916015625,62.3931884765625,49.468994140625,-42.58266178266178,24.88986568986569,28.93821733821734
24:07.586,0.54345703125,1.705078125,0.55517578125,12.42828369140625,15.93780517578125,-2.18963623046875,-36.73504273504273,14.244200244200243,-16.043467643467643,-1.61572265625,-0.279296875,0.4755859375,-19.78302001953125,-8.04901123046875,6.64520263671875,17.093040293040293,-62.224664224664224,37.03492063492063,-0.4013671875,2.45166015625,-0.7998046875,-188.39263916015625,62.3931884765625,49.468994140625,-42.58266178266178,24.88986568986569,28.93821733821734
24:08.414,0.48486328125,1.8603515625,0.20068359375,-2.34222412109375,-10.0555419921875,-3.28826904296875,-34.336019536019535,12.444932844932845,-13.044688644688645,-1.77880859375,0.22802734375,0.5576171875,-4.29534912109375,5.2337646484375,1.07574462890625,23.84029304029304,-60.87521367521367,41.683028083028084,0.04833984375,2.09716796875,-0.31591796875,54.11529541015625,-11.03973388671875,-19.95849609375,-51.129181929181925,42.88253968253968,3.8984126984126983
24:09.243,0.74853515625,1.92529296875,0.3095703125,29.15191650390625,120.6817626953125,25.48980712890625,-47.68058608058608,6.747252747252747,-37.18485958485958,-1.81005859375,-0.23291015625,0.494140625,-104.10308837890625,0.14495849609375,36.00311279296875,14.394139194139193,-59.52576312576312,32.98656898656898,-0.31640625,2.0986328125,0.078125,-3.6163330078125,30.46417236328125,26.5960693359375,-49.92967032967033,40.033699633699634,-2.0991452991452992
24:10.169,0.3291015625,1.779296875,0.20166015625,2.54058837890625,69.74029541015625,-3.2196044921875,-58.77606837606837,5.847619047619047,-67.02271062271062,-1.81494140625,0.28955078125,0.49951171875,-28.45001220703125,-17.730712890625,0.98419189453125,3.7484737484737485,-50.829304029304026,26.389255189255188,-0.1923828125,1.80810546875,-0.56103515625,12.115478515625,227.83660888671875,-92.437744140625,-78.86788766788767,22.19096459096459,-49.179975579975576
24:10.998,0.3291015625,1.779296875,0.20166015625,-15.9912109375,23.406982421875,56.976318359375,-50.07960927960928,-19.941880341880342,-45.13162393162393,-2.00390625,-0.04345703125,0.24853515625,-37.92572021484375,1.922607421875,8.12530517578125,-5.547741147741148,-57.27667887667887,44.53186813186813,0.107421875,2.0224609375,0.0078125,35.22491455078125,7.34710693359375,-16.204833984375,-77.06862026862026,8.396581196581197,-41.08327228327228
24:11.827,0.59765625,2.14892578125,0.1591796875,-15.9912109375,23.406982421875,56.976318359375,-50.07960927960928,-19.941880341880342,-45.13162393162393,-2.00390625,-0.04345703125,0.24853515625,-5.1727294921875,12.84027099609375,6.64520263671875,2.998778998778999,-64.77362637362637,58.026373626373626,-0.16357421875,1.65478515625,-0.892578125,68.22967529296875,21.4385986328125,-14.83154296875,-59.975579975579976,-3.2986568986568985,29.238095238095237
24:12.656,0.36474609375,1.9267578125,0.595703125,13.2904052734375,1.88446044921875,-6.99615478515625,-35.68547008547009,-19.34212454212454,-29.687912087912085,-1.75537109375,-0.21923828125,0.51708984375,-5.1727294921875,12.84027099609375,6.64520263671875,-2.0991452991452992,-67.32258852258852,48.58021978021978,-0.16357421875,1.65478515625,-0.892578125,76.0345458984375,70.33538818359375,-16.082763671875,-41.683028083028084,1.4993894993894994,33.28644688644688
24:13.533,0.82470703125,1.939453125,0.6005859375,8.24737548828125,20.6146240234375,-1.30462646484375,-37.48473748473749,-12.594871794871795,-46.48107448107448,-1.9365234375,0.12939453125,0.6484375,-3.85284423828125,-5.126953125,-18.4478759765625,-2.0991452991452992,-67.32258852258852,48.58021978021978,-0.0029296875,1.2822265625,-1.40625,76.0345458984375,70.33538818359375,-16.082763671875,-51.72893772893773,13.644444444444444,-8.396581196581197
24:14.508,0.787109375,2.4111328125,0.43603515625,52.3223876953125,173.34747314453125,-11.23809814453125,-24.44004884004884,-17.093040293040293,-15.443711843711844,-2.1220703125,0.169921875,0.21142578125,-88.9434814453125,28.20587158203125,34.8663330078125,3.8984126984126983,-65.37338217338217,56.526984126984125,0.05322265625,2.12646484375,-0.03173828125,-32.06634521484375,94.17724609375,-34.61456298828125,-55.62735042735043,40.78339438339438,73.62002442002442
24:15.581,0.45556640625,2.2490234375,-0.02392578125,2.593994140625,31.74591064453125,-76.873779296875,-19.49206349206349,4.1982905982905985,14.244200244200243,-2.03662109375,-0.24609375,0.3173828125,1.9683837890625,-12.04681396484375,-0.41961669921875,28.338461538461537,-72.12063492063491,67.62246642246642,-0.0732421875,1.04296875,-0.90478515625,-32.06634521484375,94.17724609375,-34.61456298828125,-32.236874236874236,52.47863247863248,7.197069597069596
24:16.507,0.39404296875,2.1123046875,-0.0146484375,-38.96331787109375,25.26092529296875,16.68548583984375,-29.238095238095237,18.29255189255189,-12.145054945054945,-1.75,0.2021484375,0.447265625,-21.026611328125,13.25225830078125,0.46539306640625,24.589987789987788,-62.82442002442002,39.583882783882785,-0.09619140625,2.0302734375,-0.25390625,48.14910888671875,-5.47027587890625,-22.369384765625,-32.236874236874236,52.47863247863248,7.197069597069596
24:17.384,0.79638671875,1.73388671875,0.79345703125,30.3955078125,30.06744384765625,-12.9241943359375,-35.68547008547009,17.692796092796094,-32.08693528693529,-1.75048828125,-0.08837890625,0.58544921875,-31.37969970703125,-4.364013671875,27.130126953125,14.694017094017093,-63.57411477411477,34.036141636141636,-0.017578125,2.22412109375,-0.19384765625,55.47332763671875,24.60479736328125,29.39605712890625,-41.98290598290598,27.738705738705736,28.488400488400487
24:18.213,0.84033203125,2.35595703125,0.41064453125,2.1209716796875,-10.6048583984375,-91.77398681640625,-32.386813186813185,14.394139194139193,-17.692796092796094,-2.14501953125,-0.05712890625,0.03076171875,-42.2821044921875,37.04071044921875,-12.85552978515625,15.743589743589743,-57.42661782661782,34.93577533577533,0.08740234375,0.9189453125,-0.212890625,-138.3056640625,47.00469970703125,-44.53277587890625,-55.027594627594624,42.88253968253968,7.496947496947497
24:19.091,0.55322265625,1.92333984375,-0.16748046875,10.25390625,90.88897705078125,30.32684326171875,-45.58144078144078,16.64322344322344,-42.28278388278388,-1.84814453125,0.2421875,0.58154296875,-78.45306396484375,-4.18853759765625,-14.28985595703125,18.892307692307693,-59.975579975579976,31.037362637362637,-0.45751953125,2.44580078125,0.03955078125,14.7247314453125,31.341552734375,-83.06121826171875,-34.036141636141636,42.58266178266178,-2.848840048840049
24:20.066,0.55322265625,1.92333984375,-0.16748046875,13.96942138671875,-12.26806640625,3.36456298828125,-51.429059829059824,-4.498168498168498,-59.22588522588522,-1.99072265625,-0.24560546875,0.57666015625,-28.533935546875,-12.51983642578125,21.70562744140625,-3.8984126984126983,-54.12796092796093,27.88864468864469,-0.68359375,2.169921875,-0.0615234375,74.15771484375,-37.6739501953125,-20.08819580078125,-68.37216117216117,13.494505494505495,-35.08571428571428
24:20.895,0.76123046875,1.67626953125,0.28271484375,-16.4031982421875,7.5531005859375,40.2374267578125,-32.686691086691084,-19.791941391941393,-35.985347985347985,-1.9921875,-0.54345703125,-0.06787109375,38.55133056640625,-22.216796875,-10.88714599609375,-0.7496947496947497,-64.17387057387057,48.13040293040293,-0.916015625,1.4501953125,-0.638671875,-195.94573974609375,48.8433837890625,28.48052978515625,-45.73137973137973,-8.246642246642246,44.83174603174603
24:21.918,0.6689453125,1.82373046875,0.3798828125,-16.4031982421875,7.5531005859375,40.2374267578125,-28.338461538461537,-20.39169719169719,-28.03858363858364,-1.84228515625,0.08984375,0.4853515625,-41.778564453125,-18.4173583984375,27.2216796875,4.048351648351648,-60.425396825396824,51.429059829059824,-0.2021484375,2.072265625,-0.36083984375,44.79217529296875,38.04779052734375,-19.05059814453125,-62.074725274725274,7.946764346764346,-5.697680097680098
24:22.747,1.24365234375,1.6357421875,-0.23779296875,15.83099365234375,34.7747802734375,42.33551025390625,-28.338461538461537,-20.39169719169719,-28.03858363858364,-1.84228515625,0.08984375,0.4853515625,-126.76239013671875,-20.9503173828125,44.2352294921875,19.042246642246642,-69.72161172161172,71.67081807081807,-0.2021484375,2.072265625,-0.36083984375,20.51544189453125,136.65771484375,19.08111572265625,-84.26568986568986,9.895970695970696,34.336019536019535
24:23.674,1.0908203125,1.82666015625,0.341796875,52.91748046875,117.919921875,70.1751708984375,-15.293772893772893,-15.743589743589743,7.796825396825397,-1.966796875,-0.32763671875,0.4638671875,-126.76239013671875,-20.9503173828125,44.2352294921875,27.438827838827837,-62.82442002442002,40.33357753357753,-2.501953125,3.76611328125,1.5927734375,25.57373046875,47.92022705078125,-65.277099609375,-17.093040293040293,38.98412698412698,-4.648107448107448
24:24.600,1.7666015625,1.2978515625,-0.1259765625,49.73602294921875,111.0687255859375,20.81298828125,-19.64200244200244,13.944322344322345,-7.047130647130647,-1.94580078125,0.32470703125,0.34228515625,-71.06781005859375,19.073486328125,-15.92254638671875,27.438827838827837,-62.82442002442002,40.33357753357753,-0.36669921875,2.2177734375,-0.470703125,25.57373046875,47.92022705078125,-65.277099609375,-17.093040293040293,38.98412698412698,-4.648107448107448
24:25.477,0.69970703125,0.06103515625,1.62158203125,-17.5933837890625,-0.274658203125,0.579833984375,-25.78949938949939,-2.548962148962149,-51.57899877899878,-1.94189453125,-0.173828125,0.37548828125,86.2884521484375,27.32086181640625,-4.45556640625,-5.547741147741148,-66.87277167277168,5.547741147741148,0.67822265625,2.095703125,0.08447265625,11.1236572265625,3.082275390625,-16.94488525390625,-12.894749694749695,23.690354090354088,-8.696459096459096
24:26.403,0.423828125,0.9697265625,1.591796875,78.8726806640625,100.921630859375,-55.6488037109375,-9.446153846153846,-15.893528693528692,9.596092796092796,-1.50634765625,-0.72607421875,-0.13037109375,22.5067138671875,-2.5177001953125,-12.96234130859375,-1.6493284493284492,-66.57289377289376,10.945543345543346,-0.32666015625,1.31005859375,-0.33203125,-157.26470947265625,61.34796142578125,50.2777099609375,-68.97191697191697,33.28644688644688,-33.58632478632479
24:27.281,0.75244140625,1.7998046875,0.06396484375,-39.8101806640625,-37.31536865234375,108.40606689453125,-21.29133089133089,3.8984126984126983,13.494505494505495,-1.75537109375,-0.00048828125,0.35498046875,-7.68280029296875,-8.3770751953125,-3.3111572265625,28.638339438339436,-64.47374847374847,35.985347985347985,0.0224609375,2.04736328125,-0.17236328125,46.2646484375,-14.83154296875,-20.04241943359375,-46.18119658119658,38.68424908424908,2.6989010989010986
24:28.158,0.6708984375,1.8642578125,0.54296875,10.99395751953125,104.53033447265625,52.05535888671875,-28.93821733821734,9.596092796092796,-8.246642246642246,-1.8857421875,-0.234375,0.48388671875,-82.183837890625,-12.09259033203125,36.7279052734375,23.24053724053724,-63.27423687423687,34.485958485958484,-0.11083984375,1.75927734375,0.52783203125,28.32794189453125,-7.4920654296875,70.01495361328125,-36.88498168498168,41.23321123321123,22.94065934065934
24:29.036,0.6708984375,1.8642578125,0.54296875,26.0772705078125,101.41754150390625,28.49578857421875,-49.329914529914525,13.644444444444444,-37.784615384615385,-1.91064453125,0.22900390625,0.39892578125,-104.20989990234375,-18.47076416015625,8.96453857421875,19.49206349206349,-58.326251526251525,36.435164835164834,-0.44873046875,2.2861328125,0.04931640625,25.604248046875,12.85552978515625,-73.90594482421875,-67.77240537240537,28.03858363858364,-35.08571428571428
24:29.913,0.80517578125,1.9990234375,0.09033203125,26.0772705078125,101.41754150390625,28.49578857421875,-49.77973137973138,-14.993894993894994,-59.67570207570208,-2.1298828125,0.00390625,0.265625,-39.947509765625,-40.95458984375,29.327392578125,-6.747252747252747,-57.12673992673992,31.787057387057384,0.18408203125,2.044921875,0.02685546875,9.9945068359375,19.59991455078125,9.9334716796875,-66.87277167277168,17.992673992673993,-34.93577533577533
24:30.840,0.68212890625,2.4443359375,0.29296875,40.85540771484375,46.79107666015625,-14.54925537109375,-49.77973137973138,-14.993894993894994,-59.67570207570208,-2.1298828125,0.00390625,0.265625,-7.0343017578125,-0.93841552734375,-10.52093505859375,-5.697680097680098,-65.22344322344323,46.78095238095238,-0.810546875,2.09765625,-0.58935546875,-224.99847412109375,35.92681884765625,61.50054931640625,-65.37338217338217,-4.348229548229548,27.88864468864469
24:31.717,0.12060546875,2.18798828125,0.10791015625,-36.73553466796875,-35.83526611328125,71.98333740234375,-39.583882783882785,-16.793162393162394,-43.33235653235653,-2.0771484375,-0.16943359375,0.13623046875,-2.09808349609375,1.65557861328125,-0.2899169921875,-2.848840048840049,-65.52332112332113,48.88009768009768,-0.810546875,2.09765625,-0.58935546875,77.72064208984375,12.4359130859375,-30.21240234375,-52.02881562881563,-1.4993894993894994,22.34090354090354
24:32.595,0.68896484375,1.73388671875,0.13427734375,10.6658935546875,18.56231689453125,5.94329833984375,-43.63223443223443,-10.645665445665445,-56.07716727716728,-1.857421875,0.02734375,0.5615234375,-2.09808349609375,1.65557861328125,-0.2899169921875,3.2986568986568985,-68.52210012210011,62.37460317460317,-0.20947265625,2.16796875,-0.41796875,-7.54547119140625,42.510986328125,17.73834228515625,-61.774847374847376,10.045909645909646,-1.799267399267399
24:33.667,0.703125,2.119140625,0.23046875,38.55133056640625,198.5626220703125,17.93670654296875,-13.794383394383393,-23.54041514041514,-11.395360195360196,-2.00439453125,-0.37109375,0.44482421875,-143.10455322265625,-9.21630859375,60.6689453125,26.389255189255188,-71.97069597069597,69.87155067155066,-0.4794921875,2.16845703125,0.00439453125,-7.54547119140625,42.510986328125,17.73834228515625,-50.979242979242976,46.63101343101343,70.77118437118438
24:34.545,0.3505859375,2.01806640625,-0.08935546875,-0.8697509765625,14.892578125,-36.91864013671875,-19.34212454212454,1.1995115995115995,12.294993894993894,-1.87060546875,0.3818359375,0.69384765625,-6.62994384765625,4.302978515625,-26.92413330078125,26.389255189255188,-71.97069597069597,69.87155067155066,-0.3349609375,3.35986328125,-1.62744140625,91.25518798828125,249.99237060546875,-160.8123779296875,-50.979242979242976,46.63101343101343,70.77118437118438
24:35.422,0.28564453125,2.0185546875,0.0703125,-18.585205078125,4.69970703125,22.88818359375,-29.388034188034187,18.44249084249084,-13.044688644688645,-1.658203125,0.24609375,0.048828125,-27.862548828125,18.49365234375,15.38848876953125,25.18974358974359,-64.92356532356533,40.63345543345543,-0.1455078125,2.02978515625,-0.310546875,30.0750732421875,-12.5885009765625,-10.03265380859375,-32.536752136752135,61.02515262515262,42.88253968253968
24:36.251,1.01611328125,1.79736328125,0.2724609375,19.1497802734375,42.816162109375,54.11529541015625,-35.53553113553114,13.944322344322345,-22.34090354090354,-1.7041015625,-0.05029296875,0.5146484375,-50.74310302734375,-2.838134765625,21.3470458984375,22.34090354090354,-64.17387057387057,43.18241758241758,-0.34375,1.94140625,-1.93505859375,-122.1466064453125,49.1485595703125,26.39007568359375,-40.33357753357753,27.288888888888888,29.388034188034187
24:37.177,0.59716796875,2.0419921875,0.30615234375,-0.23651123046875,31.0211181640625,-33.63800048828125,-32.536752136752135,9.146275946275946,-13.344566544566543,-2.04052734375,0.078125,0.46923828125,-15.84625244140625,-3.4332275390625,-27.41241455078125,22.19096459096459,-63.724053724053725,43.03247863247863,-0.22705078125,1.91552734375,-0.68017578125,53.3294677734375,122.03216552734375,-71.02203369140625,-53.228327228327224,39.583882783882785,2.848840048840049
24:38.055,0.59716796875,2.0419921875,0.30615234375,26.1077880859375,53.436279296875,8.11004638671875,-47.83052503052503,10.045909645909646,-48.58021978021978,-1.7802734375,0.2646484375,0.4296875,-109.5733642578125,-9.33837890625,23.75030517578125,15.443711843711844,-59.52576312576312,27.738705738705736,-0.0966796875,2.03564453125,-0.228515625,18.8446044921875,8.7890625,-24.0478515625,-27.438827838827837,38.68424908424908,-2.548962148962149
24:38.932,0.79931640625,1.8935546875,-0.34228515625,26.1077880859375,53.436279296875,8.11004638671875,-56.377045177045176,-7.047130647130647,-62.97435897435897,-1.79736328125,-0.15625,0.4814453125,-36.72027587890625,-8.880615234375,17.5323486328125,-2.848840048840049,-57.87643467643468,30.287667887667887,0.94970703125,4.54248046875,3.93896484375,127.7313232421875,-41.60308837890625,-21.3165283203125,-67.77240537240537,1.4993894993894994,-27.88864468864469
24:39.810,0.53076171875,1.84619140625,0.10546875,0.37384033203125,-7.9803466796875,7.66754150390625,-56.377045177045176,-7.047130647130647,-62.97435897435897,-1.5751953125,-0.51171875,0.37744140625,32.70721435546875,-15.75469970703125,-12.13836669921875,-0.29987789987789987,-64.47374847374847,52.47863247863248,-0.5107421875,1.53076171875,-0.4384765625,-147.76611328125,79.437255859375,32.5164794921875,-44.98168498168498,-10.045909645909646,47.230769230769226
24:40.687,0.73095703125,1.70703125,0.603515625,-6.4849853515625,-52.6123046875,-37.13226318359375,-34.485958485958484,-17.692796092796094,-36.73504273504273,-1.5751953125,-0.51171875,0.37744140625,32.70721435546875,-15.75469970703125,-12.13836669921875,5.247863247863248,-67.02271062271062,60.125518925518925,-0.5107421875,1.53076171875,-0.4384765625,-147.76611328125,79.437255859375,32.5164794921875,-51.429059829059824,8.846398046398047,9.596092796092796
24:41.614,0.732421875,1.724609375,0.17822265625,-6.20269775390625,17.93670654296875,39.48211669921875,-34.036141636141636,-14.843956043956043,-27.588766788766787,-1.763671875,0.12939453125,0.4130859375,-66.09344482421875,18.57757568359375,21.93450927734375,4.798046398046398,-70.62124542124542,64.47374847374847,0.20703125,2.0146484375,0.140625,10.9710693359375,-0.60272216796875,7.5531005859375,-80.66715506715506,1.1995115995115995,7.796825396825397
24:42.589,0.92578125,1.90283203125,0.2177734375,80.78765869140625,85.82305908203125,1.6937255859375,-21.59120879120879,-21.14139194139194,-11.395360195360196,-1.78564453125,-0.04541015625,0.4833984375,-119.903564453125,-0.57220458984375,44.99053955078125,20.69157509157509,-69.87155067155066,64.02393162393162,-0.12548828125,2.07177734375,-0.220703125,-78.33099365234375,181.3507080078125,-17.17376708984375,-47.68058608058608,48.73015873015873,71.82075702075701
24:43.612,-0.05810546875,2.0908203125,0.28955078125,17.3492431640625,11.65771484375,-11.2457275390625,-17.692796092796094,-2.249084249084249,12.894749694749695,-2.1025390625,-0.1591796875,0.1474609375,12.50457763671875,-43.52569580078125,-3.48663330078125,29.987789987789988,-66.87277167277168,41.08327228327228,-0.3701171875,0.6044921875,-0.2412109375,-78.33099365234375,181.3507080078125,-17.17376708984375,-34.336019536019535,47.380708180708176,-2.0991452991452992
24:44.636,0.51953125,1.6806640625,-0.1494140625,-16.07513427734375,58.89892578125,22.552490234375,-25.33968253968254,24.29010989010989,-8.396581196581197,-1.67041015625,0.17041015625,0.31396484375,-30.0140380859375,5.2337646484375,-0.030517578125,29.987789987789988,-66.87277167277168,41.08327228327228,-0.09423828125,1.98046875,-0.14111328125,41.83197021484375,4.60052490234375,-31.25762939453125,-43.33235653235653,25.639560439560437,29.238095238095237
24:45.465,0.79150390625,1.72265625,0.54931640625,12.93182373046875,31.6162109375,13.397216796875,-37.934554334554335,13.344566544566543,-25.489621489621488,-1.87744140625,-0.25146484375,0.64501953125,-22.125244140625,0.46539306640625,14.1448974609375,23.99023199023199,-64.02393162393162,42.58266178266178,0.17333984375,2.07470703125,-0.09716796875,48.7823486328125,31.70013427734375,7.27081298828125,-43.33235653235653,25.639560439560437,29.238095238095237
24:46.391,0.58154296875,1.55126953125,0.38916015625,-4.8370361328125,-8.93402099609375,-37.13226318359375,-36.285225885225884,11.845177045177044,-20.39169719169719,-1.58935546875,-0.15185546875,0.1630859375,-16.8304443359375,-7.71331787109375,1.48773193359375,21.89108669108669,-61.924786324786325,35.985347985347985,-0.1484375,1.64111328125,-0.8251953125,-223.50311279296875,158.203125,-93.4295654296875,-55.47741147741147,40.33357753357753,5.997557997557998
24:47.220,0.9267578125,1.9853515625,0.06103515625,37.36114501953125,91.34674072265625,-29.84619140625,-46.48107448107448,19.34212454212454,-45.88131868131868,-1.78076171875,0.10693359375,0.58740234375,-84.19036865234375,1.18255615234375,19.3634033203125,19.64200244200244,-57.42661782661782,34.186080586080585,-0.2119140625,2.0380859375,-0.2958984375,9.10186767578125,9.33837890625,-31.097412109375,-42.28278388278388,37.934554334554335,-21.44126984126984
24:48.048,0.9267578125,1.9853515625,0.06103515625,39.1998291015625,48.69842529296875,-34.881591796875,-59.975579975579976,-6.147496947496947,-58.026373626373626,-1.6826171875,-0.265625,0.5908203125,-62.95013427734375,2.51007080078125,16.4947509765625,-7.496947496947497,-58.92600732600732,32.386813186813185,0.4189453125,1.9296875,-0.0537109375,40.10009765625,218.02520751953125,15.716552734375,-66.42295482295482,7.496947496947497,-31.487179487179485
24:48.926,0.5986328125,1.82861328125,0.396484375,39.1998291015625,48.69842529296875,-34.881591796875,-35.68547008547009,-19.64200244200244,-27.288888888888888,-2.2763671875,-0.54150390625,-0.01611328125,4.24957275390625,28.1829833984375,-13.885498046875,2.0991452991452992,-64.92356532356533,55.47741147741147,-0.4423828125,1.1220703125,-0.1279296875,-73.66943359375,-33.43963623046875,91.51458740234375,-47.380708180708176,-6.597313797313797,54.427838827838826
24:49.901,0.626953125,2.70556640625,0.28759765625,1.73187255859375,-59.9365234375,-84.7015380859375,-31.037362637362637,-16.49328449328449,-23.24053724053724,-1.5615234375,0.15576171875,0.48828125,-12.115478515625,-5.0201416015625,18.01300048828125,5.847619047619047,-67.32258852258852,54.877655677655675,0.06298828125,1.9638671875,-0.021484375,31.9671630859375,8.03375244140625,-9.98687744140625,-51.429059829059824,2.998778998778999,13.344566544566543
24:50.778,0.587890625,1.77978515625,-0.06982421875,-14.77813720703125,-24.83367919921875,12.1307373046875,-31.037362637362637,-16.49328449328449,-23.24053724053724,-1.5615234375,0.15576171875,0.48828125,-158.04290771484375,-29.144287109375,63.29345703125,-2.548962148962149,-66.42295482295482,54.427838827838826,-1.3017578125,2.09619140625,-0.1416015625,-13.87786865234375,64.99481201171875,32.44781494140625,-55.027594627594624,9.446153846153846,10.645665445665445
24:51.802,0.720703125,1.80126953125,0.27734375,51.3153076171875,105.89599609375,-25.21514892578125,-29.987789987789988,-18.59242979242979,-28.03858363858364,-1.755859375,0.46728515625,0.71240234375,-24.9481201171875,9.30023193359375,-3.5247802734375,14.993894993894994,-73.91990231990232,71.07106227106227,0.2021484375,2.65185546875,-1.80322265625,58.44879150390625,144.52362060546875,-133.75091552734375,-67.92234432234432,41.23321123321123,57.12673992673992
24:52.729,0.55419921875,2.111328125,0.35205078125,-15.02227783203125,-104.9041748046875,-54.02374267578125,-25.03980463980464,-11.095482295482295,-0.7496947496947497,-1.755859375,0.46728515625,0.71240234375,3.4027099609375,-1.0986328125,4.9285888671875,29.238095238095237,-67.92234432234432,53.97802197802198,0.2021484375,2.65185546875,-1.80322265625,29.144287109375,-3.70025634765625,-2.86102294921875,-51.129181929181925,54.427838827838826,49.62979242979243
24:53.703,0.50341796875,2.51318359375,0.06005859375,-25.1312255859375,-17.34161376953125,14.01519775390625,-28.788278388278385,13.644444444444444,-3.2986568986568985,-1.955078125,0.080078125,0.58056640625,3.4027099609375,-1.0986328125,4.9285888671875,21.89108669108669,-63.27423687423687,41.98290598290598,0.02587890625,1.96923828125,0.05419921875,-202.57568359375,44.1436767578125,32.09686279296875,-36.58510378510378,31.037362637362637,27.13894993894994
24:54.532,0.21923828125,1.84375,0.25048828125,-12.5885009765625,-9.45281982421875,60.9893798828125,-37.03492063492063,14.544078144078144,-26.689133089133087,-1.62451171875,-0.14697265625,0.4365234375,-19.744873046875,5.462646484375,6.9122314453125,21.89108669108669,-63.27423687423687,41.98290598290598,-0.5693359375,2.4814453125,-1.232421875,-202.57568359375,44.1436767578125,32.09686279296875,-36.58510378510378,31.037362637362637,27.13894993894994
24:55.361,0.62841796875,1.736328125,0.265625,-6.2255859375,-23.3612060546875,6.65283203125,-36.58510378510378,14.394139194139193,-24.44004884004884,-1.66259765625,0.1953125,0.85498046875,-2.8228759765625,10.589599609375,-14.09149169921875,18.142612942612942,-58.92600732600732,36.285225885225884,-0.16357421875,2.5703125,-0.181640625,97.869873046875,28.167724609375,-62.87384033203125,-57.72649572649573,40.78339438339438,-2.848840048840049
24:56.238,0.61669921875,1.90869140625,0.109375,29.65545654296875,159.637451171875,34.93499755859375,-53.52820512820512,13.644444444444444,-39.733821733821735,-1.5869140625,-0.18701171875,0.32470703125,-118.59893798828125,0.06103515625,53.87115478515625,15.143833943833943,-53.228327228327224,35.38559218559219,-0.01416015625,1.9541015625,-0.02099609375,1.739501953125,4.9591064453125,12.7716064453125,-45.88131868131868,43.33235653235653,-14.094261294261294
24:57.165,0.666015625,1.888671875,0.1650390625,-13.64898681640625,37.40692138671875,20.72906494140625,-64.17387057387057,-12.594871794871795,-58.026373626373626,-1.7109375,-0.0927734375,0.19970703125,-7.7972412109375,-43.1365966796875,11.54327392578125,1.9492063492063492,-48.73015873015873,41.98290598290598,-0.38232421875,0.8525390625,-0.7841796875,-85.968017578125,-6.8817138671875,-4.82940673828125,-94.91135531135531,-6.897191697191697,-36.73504273504273
24:58.042,0.666015625,1.888671875,0.1650390625,-42.4652099609375,152.58026123046875,25.4058837890625,-51.129181929181925,-19.941880341880342,-35.23565323565323,-1.7529296875,0.1259765625,0.30224609375,0.5950927734375,5.279541015625,-13.93890380859375,-0.4498168498168498,-57.27667887667887,53.37826617826617,0.33203125,1.9150390625,-0.19189453125,10.68878173828125,-28.5491943359375,4.66156005859375,-85.46520146520146,5.547741147741148,-33.73626373626374
24:58.920,0.57861328125,2.5009765625,0.12890625,-42.4652099609375,152.58026123046875,25.4058837890625,-33.43638583638584,-18.742368742368743,-14.544078144078144,-1.77294921875,-0.29150390625,0.51953125,-7.3394775390625,2.99072265625,10.56671142578125,1.9492063492063492,-63.724053724053725,47.53064713064713,0.0751953125,2.30029296875,0.07080078125,88.58489990234375,59.24224853515625,-26.23748779296875,-62.52454212454212,-2.548962148962149,28.188522588522588
24:59.846,0.3681640625,1.93017578125,0.52197265625,-2.40325927734375,23.50616455078125,-13.95416259765625,-33.43638583638584,-18.742368742368743,-14.544078144078144,-1.845703125,0.2216796875,0.6640625,9.28497314453125,1.5106201171875,-20.51544189453125,1.3494505494505493,-67.92234432234432,53.67814407814408,0.02734375,2.765625,-0.0478515625,137.0849609375,-91.63665771484375,-28.1524658203125,-41.38315018315018,1.9492063492063492,26.98901098901099
25:00.772,1.14599609375,1.85009765625,0.56689453125,23.50616455078125,90.67535400390625,-51.68914794921875,-35.835409035409036,-15.593650793650793,-40.18363858363858,-1.845703125,0.2216796875,0.6640625,-70.36590576171875,-9.31549072265625,33.22601318359375,-4.648107448107448,-64.77362637362637,49.62979242979243,0.02734375,2.765625,-0.0478515625,-6.9580078125,11.07025146484375,28.87725830078125,-47.83052503052503,9.446153846153846,3.8984126984126983
25:01.845,0.84912109375,1.78759765625,0.4208984375,40.6951904296875,104.8583984375,49.21722412109375,-19.791941391941393,-17.842735042735043,2.249084249084249,-1.84619140625,0.5595703125,0.60986328125,-9.124755859375,5.94329833984375,-10.1776123046875,18.142612942612942,-73.62002442002442,69.27179487179487,-0.57861328125,2.634765625,0.134765625,2.92205810546875,-4.608154296875,-79.73480224609375,-70.77118437118438,32.536752136752135,61.02515262515262
25:02.868,0.4443359375,2.01708984375,-0.06201171875,-18.13507080078125,-10.20050048828125,-26.30615234375,-19.791941391941393,-17.842735042735043,2.249084249084249,-1.8984375,-0.00927734375,0.86865234375,-8.4228515625,-12.82501220703125,0.35858154296875,26.23931623931624,-61.47496947496947,48.28034188034188,-0.1015625,1.93505859375,-0.64208984375,86.98272705078125,37.6129150390625,-49.957275390625,-61.774847374847376,49.479853479853475,48.73015873015873
25:03.697,0.5107421875,2.201171875,0.17041015625,-11.9476318359375,76.36260986328125,11.8255615234375,-28.638339438339436,14.244200244200243,-7.197069597069596,-1.8984375,-0.00927734375,0.86865234375,20.1416015625,-17.86041259765625,5.43975830078125,23.09059829059829,-63.12429792429792,38.98412698412698,-0.1015625,1.93505859375,-0.64208984375,-173.34747314453125,54.962158203125,34.14154052734375,-36.135286935286935,34.336019536019535,29.537973137973136
25:04.624,0.5048828125,2.0,0.57763671875,11.71112060546875,-68.115234375,-38.14697265625,-35.835409035409036,17.54285714285714,-25.489621489621488,-1.81494140625,-0.412109375,0.244140625,20.1416015625,-17.86041259765625,5.43975830078125,23.09059829059829,-63.12429792429792,38.98412698412698,-0.5478515625,1.779296875,-1.16015625,-173.34747314453125,54.962158203125,34.14154052734375,-38.53431013431013,47.53064713064713,14.094261294261294
25:05.551,0.51123046875,2.04638671875,-0.04345703125,-45.2117919921875,-24.0936279296875,19.26422119140625,-29.238095238095237,20.09181929181929,-19.941880341880342,-1.71630859375,0.17236328125,0.611328125,-9.9639892578125,19.79827880859375,-10.8184814453125,22.94065934065934,-57.12673992673992,41.533089133089135,-0.00390625,2.01123046875,-0.2666015625,28.86962890625,-22.52197265625,0.52642822265625,-56.826862026862024,40.63345543345543,-16.943101343101343
25:06.573,0.677734375,2.22998046875,0.03076171875,14.13726806640625,230.36956787109375,50.6591796875,-52.778510378510376,10.495726495726496,-42.13284493284493,-1.912109375,-0.05029296875,0.55615234375,-132.476806640625,-14.25933837890625,39.1082763671875,13.344566544566543,-54.727716727716725,35.38559218559219,-0.51953125,1.72412109375,-1.498046875,-2.3345947265625,168.1671142578125,22.064208984375,-56.826862026862024,40.63345543345543,-16.943101343101343
25:07.403,0.7734375,1.97021484375,0.2841796875,-22.8118896484375,46.76055908203125,6.53076171875,-67.62246642246642,2.998778998778999,-71.52087912087912,-1.72802734375,0.2197265625,0.65673828125,-73.8525390625,8.68988037109375,-1.2359619140625,8.396581196581197,-44.23199023199023,36.285225885225884,-0.43212890625,2.25146484375,0.03564453125,8.94927978515625,-4.547119140625,-71.63238525390625,-96.7106227106227,12.294993894993894,-59.07594627594627
25:08.280,0.708984375,2.0517578125,0.5185546875,-7.843017578125,59.173583984375,8.06427001953125,-58.77606837606837,-17.39291819291819,-46.33113553113553,-2.0517578125,-0.34033203125,0.6806640625,-40.47393798828125,-10.9100341796875,22.735595703125,-2.399023199023199,-55.32747252747252,52.17875457875458,0.4130859375,2.0546875,0.17041015625,65.7196044921875,39.84832763671875,-0.83160400390625,-102.10842490842491,7.946764346764346,-53.82808302808303
25:09.109,1.13818359375,1.65771484375,0.0947265625,-6.8206787109375,-94.67315673828125,-66.93267822265625,-51.87887667887668,-10.795604395604395,-41.98290598290598,-1.744140625,-0.71435546875,0.12353515625,44.92950439453125,18.95904541015625,-13.42010498046875,1.4993894993894994,-60.72527472527472,54.877655677655675,-0.98291015625,2.24853515625,-0.2607421875,-149.80316162109375,30.4412841796875,104.37774658203125,-55.32747252747252,-2.998778998778999,43.93211233211233
25:09.986,1.13818359375,1.65771484375,0.0947265625,-6.8206787109375,-94.67315673828125,-66.93267822265625,-42.58266178266178,-6.297435897435897,-46.63101343101343,-1.7255859375,0.224609375,0.47900390625,-15.64788818359375,-10.39886474609375,-1.65557861328125,0.8996336996336995,-66.27301587301586,46.78095238095238,-0.060546875,2.021484375,-0.2509765625,27.0233154296875,-9.185791015625,-9.95635986328125,-59.07594627594627,-2.399023199023199,5.697680097680098
25:10.912,0.64111328125,2.01171875,-0.15869140625,-69.4427490234375,-74.44000244140625,160.20965576171875,-19.64200244200244,-23.09059829059829,-10.195848595848595,-1.708984375,-0.01513671875,0.47802734375,-116.84417724609375,-12.1002197265625,28.09906005859375,-2.548962148962149,-67.92234432234432,51.57899877899878,-0.197265625,2.1220703125,-0.22412109375,-11.260986328125,101.20391845703125,34.27886962890625,-39.433943833943836,-1.1995115995115995,31.637118437118435
25:11.839,0.22216796875,2.01904296875,0.17822265625,-10.1776123046875,245.91827392578125,42.74749755859375,-19.64200244200244,-23.09059829059829,-10.195848595848595,-1.708984375,-0.01513671875,0.47802734375,-24.7955322265625,0.213623046875,-29.1900634765625,5.847619047619047,-72.12063492063491,64.77362637362637,-0.44580078125,2.005859375,-0.2197265625,-6.3018798828125,23.193359375,-55.80902099609375,-64.17387057387057,34.485958485958484,65.67326007326007
25:12.765,-0.18505859375,2.1611328125,-0.275390625,10.62774658203125,80.36041259765625,-14.12200927734375,-29.537973137973136,-14.544078144078144,-9.146275946275946,-1.98779296875,0.0869140625,0.69140625,-28.92303466796875,-11.871337890625,30.93719482421875,26.389255189255188,-65.67326007326007,45.58144078144078,0.1474609375,2.11767578125,0.09326171875,48.33221435546875,6.1492919921875,8.2550048828125,-62.97435897435897,46.48107448107448,49.329914529914525
25:13.642,0.85791015625,2.0712890625,0.21142578125,-2.38800048828125,-22.88055419921875,-43.0145263671875,-26.98901098901099,22.49084249084249,-11.845177045177044,-1.9599609375,0.048828125,0.8671875,-28.92303466796875,-11.871337890625,30.93719482421875,26.389255189255188,-65.67326007326007,45.58144078144078,0.1474609375,2.11767578125,0.09326171875,48.33221435546875,6.1492919921875,8.2550048828125,-42.88253968253968,25.78949938949939,29.388034188034187
25:14.471,2.11328125,0.21630859375,0.6533203125,-16.10565185546875,-61.14959716796875,-17.75360107421875,-37.934554334554335,10.795604395604395,-24.44004884004884,-1.7841796875,-0.24267578125,0.318359375,-19.3939208984375,7.75909423828125,0.7781982421875,20.24175824175824,-63.57411477411477,37.934554334554335,-0.45361328125,1.25634765625,-0.400390625,-124.90081787109375,58.18939208984375,20.782470703125,-42.88253968253968,25.78949938949939,29.388034188034187
25:15.397,1.046875,1.71728515625,0.232421875,20.7672119140625,-12.969970703125,53.52783203125,-17.54285714285714,-17.692796092796094,-7.796825396825397,-1.59033203125,0.1142578125,0.59521484375,-45.02105712890625,12.5274658203125,11.3372802734375,25.78949938949939,-63.27423687423687,43.63223443223443,0.03271484375,2.021484375,-0.2236328125,23.1781005859375,0.99945068359375,-6.3323974609375,-28.638339438339436,40.48351648351648,20.841514041514042
25:16.226,0.7490234375,1.72607421875,0.47314453125,67.8863525390625,81.6802978515625,5.45501708984375,-42.28278388278388,15.443711843711844,-28.488400488400487,-1.72705078125,0.0146484375,0.62646484375,-57.27386474609375,12.24517822265625,23.284912109375,12.894749694749695,-59.52576312576312,33.73626373626374,0.31103515625,1.982421875,-1.05322265625,22.308349609375,150.21514892578125,19.3939208984375,-52.17875457875458,38.084493284493284,-1.3494505494505493
25:17.055,0.7490234375,1.72607421875,0.47314453125,69.366455078125,140.09857177734375,49.163818359375,-53.37826617826617,13.044688644688645,-36.88498168498168,-1.8486328125,0.28466796875,0.47705078125,-80.62744140625,8.0108642578125,10.56671142578125,13.794383394383393,-53.37826617826617,35.53553113553114,-0.470703125,2.51025390625,0.30517578125,10.21575927734375,-2.7008056640625,-76.873779296875,-80.81709401709402,25.93943833943834,-48.28034188034188
25:17.884,0.6953125,2.1044921875,-0.20166015625,69.366455078125,140.09857177734375,49.163818359375,-53.37826617826617,13.044688644688645,-36.88498168498168,-1.97216796875,-0.26220703125,0.75341796875,-18.9666748046875,-0.25177001953125,24.47509765625,-7.646886446886446,-54.27789987789988,37.48473748473749,0.16650390625,2.107421875,-0.001953125,38.1927490234375,41.7327880859375,-4.90570068359375,-83.21611721611721,14.544078144078144,-53.67814407814408
25:18.761,0.6884765625,2.14892578125,0.23193359375,5.79071044921875,13.16070556640625,2.23541259765625,-61.624908424908426,-14.843956043956043,-55.47741147741147,-1.97216796875,-0.26220703125,0.75341796875,34.15679931640625,-15.51055908203125,-12.62664794921875,-0.4498168498168498,-66.12307692307692,52.32869352869353,-0.55810546875,2.32470703125,-0.6533203125,-191.46728515625,86.35711669921875,67.35992431640625,-57.57655677655677,-5.697680097680098,28.788278388278385
25:19.639,0.0341796875,1.73681640625,0.23876953125,-22.28546142578125,-84.4879150390625,16.73126220703125,-44.08205128205128,-14.993894993894994,-38.98412698412698,-1.8232421875,-0.38720703125,0.1865234375,34.15679931640625,-15.51055908203125,-12.62664794921875,0.29987789987789987,-67.92234432234432,50.829304029304026,-0.55810546875,2.32470703125,-0.6533203125,-191.46728515625,86.35711669921875,67.35992431640625,-57.27667887667887,-4.947985347985348,10.195848595848595
25:20.516,0.7666015625,1.5849609375,-0.1826171875,37.30010986328125,-8.03375244140625,123.9776611328125,-45.13162393162393,-4.648107448107448,-51.57899877899878,-1.81494140625,0.08642578125,0.32373046875,4.76837158203125,15.12908935546875,-4.7149658203125,0.29987789987789987,-67.92234432234432,50.829304029304026,0.12060546875,2.04296875,-0.23291015625,46.7681884765625,-0.6866455078125,-20.79010009765625,-43.18241758241758,6.297435897435897,22.04102564102564
25:21.443,1.0283203125,1.94384765625,0.1171875,52.4444580078125,192.3675537109375,-28.25164794921875,-11.995115995115995,-25.33968253968254,-14.394139194139193,-2.091796875,-0.2587890625,0.52490234375,-115.2191162109375,-3.27301025390625,54.38995361328125,0.14993894993894993,-68.07228327228327,58.476190476190474,-0.8818359375,1.87060546875,-0.22216796875,43.15185546875,93.04046630859375,29.86907958984375,-43.18241758241758,6.297435897435897,22.04102564102564
25:22.320,0.20068359375,2.08837890625,-0.22607421875,-20.21026611328125,-4.364013671875,13.58795166015625,-24.88986568986569,-18.742368742368743,-9.446153846153846,-1.79931640625,0.40087890625,0.62939453125,-17.60101318359375,5.5084228515625,-24.40643310546875,16.64322344322344,-71.97069597069597,74.06984126984126,-0.29931640625,2.3603515625,-2.24951171875,5.4473876953125,209.54132080078125,-121.46759033203125,-50.52942612942613,37.934554334554335,79.16776556776557
25:23.295,0.7802734375,2.783203125,0.24658203125,3.6163330078125,44.43359375,-7.88116455078125,-31.337240537240536,19.042246642246642,-19.34212454212454,-2.37939453125,0.17041015625,0.5888671875,-35.736083984375,-15.38848876953125,6.03485107421875,24.589987789987788,-66.87277167277168,39.583882783882785,0.0546875,2.09228515625,-0.06640625,14.83917236328125,-25.90179443359375,7.98797607421875,-40.33357753357753,54.427838827838826,61.47496947496947
25:24.173,1.01123046875,1.90185546875,0.23828125,-13.09967041015625,-6.09588623046875,-2.7313232421875,-37.33479853479853,13.644444444444444,-31.337240537240536,-2.04638671875,-0.48046875,0.24853515625,9.13238525390625,-6.23321533203125,-5.3253173828125,17.992673992673993,-64.62368742368741,37.934554334554335,-0.37353515625,2.66455078125,-0.56689453125,-219.0093994140625,15.4571533203125,72.0062255859375,-43.03247863247863,25.639560439560437,28.188522588522588
25:25.050,1.01123046875,1.90185546875,0.23828125,-19.04296875,7.28607177734375,57.54852294921875,-27.738705738705736,15.443711843711844,-7.796825396825397,-1.87109375,0.234375,0.5888671875,17.1966552734375,-5.68389892578125,-7.75146484375,27.738705738705736,-63.873992673992674,42.73260073260073,0.01416015625,2.03857421875,-0.29638671875,32.1807861328125,-4.150390625,-15.92254638671875,-43.18241758241758,45.73137973137973,13.644444444444444
25:25.928,0.67919921875,1.87890625,0.013671875,-19.04296875,7.28607177734375,57.54852294921875,-46.78095238095238,8.696459096459096,-29.537973137973136,-1.76708984375,-0.07568359375,0.4541015625,-79.1778564453125,0.885009765625,26.06201171875,14.694017094017093,-59.07594627594627,37.18485958485958,0.287109375,1.8515625,-0.5927734375,1.4801025390625,27.39715576171875,47.5616455078125,-52.778510378510376,41.533089133089135,-1.0495726495726496
25:26.854,0.5458984375,1.74951171875,0.17626953125,12.47406005859375,91.461181640625,36.87286376953125,-61.624908424908426,7.946764346764346,-50.979242979242976,-1.87548828125,0.39501953125,0.3994140625,-83.51898193359375,-6.0272216796875,3.73077392578125,14.544078144078144,-52.02881562881563,37.33479853479853,-0.47509765625,2.26611328125,0.16650390625,7.66754150390625,-4.53948974609375,-71.67816162109375,-87.26446886446887,23.99023199023199,-51.87887667887668
25:27.780,0.681640625,2.08544921875,-0.25390625,31.37969970703125,84.564208984375,70.98388671875,-61.624908424908426,7.946764346764346,-50.979242979242976,-1.87548828125,0.39501953125,0.3994140625,-27.4658203125,-6.6070556640625,26.19171142578125,-6.897191697191697,-53.67814407814408,39.28400488400488,0.056640625,2.05517578125,-0.14404296875,66.21551513671875,24.3682861328125,1.3885498046875,-89.06373626373626,13.494505494505495,-57.12673992673992
25:28.755,0.60498046875,2.02294921875,0.35498046875,16.96014404296875,26.8096923828125,31.9976806640625,-63.57411477411477,-11.845177045177044,-42.73260073260073,-1.927734375,-0.21875,0.81884765625,44.6014404296875,-19.85931396484375,-6.78253173828125,2.399023199023199,-63.12429792429792,54.727716727716725,-1.34912109375,2.05029296875,-0.44580078125,-209.7015380859375,71.40350341796875,90.8660888671875,-60.125518925518925,-5.697680097680098,32.98656898656898
25:29.730,0.84130859375,1.759765625,0.34521484375,15.6402587890625,-58.1512451171875,-46.7376708984375,-48.58021978021978,-12.744810744810744,-38.38437118437118,-1.8544921875,-0.4755859375,0.3818359375,44.6014404296875,-19.85931396484375,-6.78253173828125,1.799267399267399,-67.92234432234432,58.326251526251525,-1.34912109375,2.05029296875,-0.44580078125,39.16168212890625,-0.4730224609375,-15.4571533203125,-61.774847374847376,-5.097924297924298,11.395360195360196
25:30.559,0.693359375,1.8037109375,0.02685546875,-44.647216796875,-79.8492431640625,115.86761474609375,-44.08205128205128,-11.095482295482295,-45.13162393162393,-1.6865234375,0.12744140625,0.5751953125,-0.99945068359375,10.986328125,-10.4522705078125,1.799267399267399,-67.92234432234432,58.326251526251525,0.15771484375,2.04833984375,-0.1201171875,39.16168212890625,-0.4730224609375,-15.4571533203125,-61.774847374847376,-5.097924297924298,11.395360195360196
25:31.387,0.564453125,1.896484375,0.2705078125,17.822265625,146.0113525390625,-2.60162353515625,-21.741147741147742,-22.34090354090354,-17.242979242979242,-1.91845703125,-0.185546875,0.4326171875,-147.49908447265625,-22.552490234375,63.507080078125,0.5997557997557997,-69.42173382173382,62.52454212454212,-0.83642578125,1.92236328125,-0.419921875,-30.33447265625,-50.35400390625,42.47283935546875,-39.883760683760684,3.7484737484737485,30.137728937728937
25:32.314,0.466796875,2.0830078125,0.1796875,-8.331298828125,-5.91278076171875,-31.7535400390625,-29.238095238095237,-10.195848595848595,-2.249084249084249,-2.048828125,0.115234375,0.7529296875,-2.197265625,13.90838623046875,-5.43212890625,20.39169719169719,-72.87032967032967,76.01904761904761,-0.2080078125,2.3642578125,0.02978515625,44.92950439453125,-11.871337890625,-93.0328369140625,-76.16898656898657,42.58266178266178,31.337240537240536
25:33.289,0.7646484375,2.43408203125,0.380859375,29.24346923828125,13.763427734375,-8.5906982421875,-31.637118437118435,17.842735042735043,-12.444932844932845,-2.14697265625,-0.0576171875,0.71826171875,-35.858154296875,-15.07568359375,22.39990234375,29.537973137973136,-68.22222222222221,48.73015873015873,0.14697265625,2.10595703125,-0.10595703125,32.379150390625,9.54437255859375,-0.8544921875,-63.42417582417582,51.57899877899878,35.38559218559219
25:34.166,0.568359375,1.76220703125,0.59130859375,-2.8228759765625,-23.7579345703125,30.89141845703125,-33.88620268620269,10.195848595848595,-17.093040293040293,-1.5439453125,-0.28759765625,0.60595703125,16.4031982421875,5.950927734375,4.92095947265625,21.59120879120879,-64.17387057387057,41.08327228327228,-0.46826171875,2.06005859375,-0.8447265625,-182.44171142578125,60.85205078125,21.50726318359375,-38.68424908424908,28.488400488400487,25.03980463980464
25:35.092,0.51611328125,1.73486328125,0.2802734375,-29.24346923828125,0.64849853515625,51.91802978515625,-29.83785103785104,16.193406593406593,-8.396581196581197,-1.67578125,0.201171875,0.64306640625,2.34222412109375,10.21575927734375,-4.44793701171875,25.03980463980464,-63.724053724053725,45.13162393162393,-0.29052734375,2.3955078125,-0.31201171875,87.54730224609375,-11.199951171875,-46.01287841796875,-50.829304029304026,42.13284493284493,2.548962148962149
25:35.922,0.51611328125,1.73486328125,0.2802734375,-29.24346923828125,0.64849853515625,51.91802978515625,-51.429059829059824,2.998778998778999,-33.58632478632479,-1.7724609375,-0.45556640625,0.55322265625,-130.2032470703125,-17.09747314453125,81.878662109375,14.394139194139193,-56.526984126984125,35.08571428571428,-0.23779296875,2.14306640625,0.228515625,-18.707275390625,16.4337158203125,36.50665283203125,-42.88253968253968,43.18241758241758,-3.4485958485958483
25:36.750,0.72412109375,2.091796875,0.20361328125,-13.16070556640625,109.9395751953125,61.0198974609375,-51.429059829059824,2.998778998778999,-33.58632478632479,-1.7724609375,-0.45556640625,0.55322265625,-88.1500244140625,0.93841552734375,17.88330078125,5.697680097680098,-49.179975579975576,43.482295482295484,-0.31494140625,1.7333984375,-0.23486328125,-55.96923828125,149.627685546875,-23.2696533203125,-85.91501831501832,4.648107448107448,-52.02881562881563
25:37.627,0.3388671875,1.697265625,0.412109375,8.85009765625,61.492919921875,2.20489501953125,-63.42417582417582,10.495726495726496,-84.4156288156288,-1.77783203125,0.0830078125,0.57763671875,-88.1500244140625,0.93841552734375,17.88330078125,5.697680097680098,-49.179975579975576,43.482295482295484,-0.31494140625,1.7333984375,-0.23486328125,-55.96923828125,149.627685546875,-23.2696533203125,-87.86422466422466,5.247863247863248,-33.13650793650793
25:38.456,0.7919921875,2.53466796875,0.09521484375,-64.67437744140625,132.659912109375,47.332763671875,-41.08327228327228,-22.64078144078144,-33.28644688644688,-2.16357421875,-0.05712890625,0.44482421875,-38.33770751953125,-19.38629150390625,10.06317138671875,-0.5997557997557997,-57.12673992673992,54.577777777777776,-0.0732421875,2.0693359375,-0.20556640625,29.76226806640625,-5.77545166015625,-12.786865234375,-87.86422466422466,5.247863247863248,-33.13650793650793
25:39.382,0.71337890625,1.931640625,0.66015625,18.94378662109375,20.9197998046875,31.7840576171875,-40.78339438339438,-15.593650793650793,-29.537973137973136,-1.85791015625,-0.42236328125,0.5888671875,6.6680908203125,-1.2054443359375,3.59344482421875,2.998778998778999,-67.02271062271062,61.924786324786325,-0.00830078125,1.970703125,-1.02294921875,94.09332275390625,72.57843017578125,-28.06854248046875,-62.37460317460317,-2.848840048840049,23.84029304029304
25:40.211,0.82421875,2.03564453125,0.7646484375,28.74755859375,-39.8406982421875,-110.2752685546875,-38.98412698412698,-10.945543345543346,-45.88131868131868,-1.88427734375,-0.4658203125,0.537109375,-41.48101806640625,8.331298828125,0.12969970703125,1.9492063492063492,-64.47374847374847,49.329914529914525,-0.28466796875,1.63330078125,-0.55029296875,-164.54315185546875,119.08721923828125,-21.026611328125,-39.733821733821735,4.1982905982905985,33.13650793650793
25:41.040,0.82421875,2.03564453125,0.7646484375,-18.9666748046875,-53.97796630859375,3.23486328125,-26.83907203907204,-18.29255189255189,-16.793162393162394,-1.8984375,0.19287109375,0.505859375,-85.42633056640625,1.57928466796875,56.02264404296875,3.7484737484737485,-69.57167277167277,61.924786324786325,-0.380859375,2.06689453125,-0.25830078125,8.97979736328125,0.49591064453125,-12.176513671875,-67.02271062271062,12.744810744810744,-12.145054945054945
25:41.869,0.64306640625,1.84228515625,-0.14111328125,-18.9666748046875,-53.97796630859375,3.23486328125,-26.83907203907204,-18.29255189255189,-16.793162393162394,-2.08935546875,-0.00634765625,0.55078125,-27.38189697265625,0.0457763671875,-4.23431396484375,25.03980463980464,-64.47374847374847,55.62735042735043,0.001953125,3.001953125,-1.2392578125,-206.2530517578125,-11.31439208984375,18.157958984375,-63.724053724053725,42.88253968253968,61.47496947496947
25:42.795,0.34375,2.07080078125,0.06396484375,15.02227783203125,45.82977294921875,-10.9100341796875,-18.29255189255189,2.249084249084249,9.596092796092796,-2.08935546875,-0.00634765625,0.55078125,-7.537841796875,27.8472900390625,-17.63916015625,27.588766788766787,-65.22344322344323,44.68180708180708,-0.37841796875,2.55615234375,0.0068359375,85.479736328125,13.580322265625,-76.4312744140625,-47.53064713064713,26.539194139194137,26.23931623931624
25:43.624,0.751953125,1.6845703125,-0.1328125,-4.70733642578125,-38.116455078125,67.169189453125,-35.68547008547009,18.44249084249084,-20.841514041514042,-1.66162109375,0.15380859375,0.73388671875,-7.537841796875,27.8472900390625,-17.63916015625,16.193406593406593,-59.07594627594627,32.98656898656898,-0.37841796875,2.55615234375,0.0068359375,21.5606689453125,-40.8477783203125,4.0283203125,-37.48473748473749,31.637118437118435,26.98901098901099
25:44.599,0.72705078125,2.4931640625,0.31884765625,41.38946533203125,66.16973876953125,-16.1895751953125,-23.24053724053724,5.397802197802197,-2.998778998778999,-2.52587890625,-0.26220703125,0.63134765625,-24.25384521484375,-39.02435302734375,26.98516845703125,19.941880341880342,-59.67570207570208,38.38437118437118,0.154296875,2.1943359375,0.0634765625,-202.07977294921875,53.58123779296875,10.29205322265625,-59.07594627594627,39.883760683760684,0.7496947496947497
25:45.574,1.0625,1.63623046875,0.39599609375,13.16070556640625,69.9310302734375,10.2996826171875,-40.93333333333333,17.692796092796094,-19.791941391941393,-1.98291015625,-0.31640625,0.0732421875,5.615234375,-7.3089599609375,-5.859375,19.941880341880342,-59.67570207570208,38.38437118437118,-0.15625,1.4951171875,-1.029296875,-202.07977294921875,53.58123779296875,10.29205322265625,-59.07594627594627,39.883760683760684,0.7496947496947497
25:46.402,0.61865234375,1.96337890625,0.1728515625,5.33294677734375,116.50848388671875,-11.016845703125,-35.985347985347985,26.98901098901099,-34.485958485958484,-1.9716796875,0.2001953125,0.3583984375,-75.1495361328125,7.16400146484375,21.98028564453125,23.24053724053724,-49.030036630036626,38.68424908424908,-0.1171875,2.07861328125,-0.1943359375,2.52532958984375,22.16339111328125,-12.8173828125,-37.784615384615385,50.829304029304026,-16.64322344322344
25:47.329,0.37451171875,1.87353515625,0.48388671875,45.69244384765625,115.6768798828125,-1.15203857421875,-66.87277167277168,-17.992673992673993,-42.13284493284493,-1.87353515625,-0.3916015625,0.4296875,-98.6175537109375,17.6239013671875,18.33343505859375,4.798046398046398,-47.230769230769226,47.53064713064713,-0.4609375,2.76318359375,-1.021484375,-250.0,29.38079833984375,73.2574462890625,-94.31159951159951,12.894749694749695,-63.27423687423687
25:48.255,0.41650390625,2.0,0.279296875,-25.67291259765625,-23.895263671875,-40.44342041015625,-42.43272283272283,-21.14139194139194,-31.787057387057384,-1.84326171875,0.17041015625,0.35009765625,59.7686767578125,-15.76995849609375,-26.9012451171875,3.1487179487179486,-49.179975579975576,49.479853479853475,-0.12255859375,2.0322265625,-1.40673828125,137.51220703125,-106.6436767578125,-12.41302490234375,-68.97191697191697,-2.548962148962149,39.433943833943836
25:49.133,0.53466796875,2.1669921875,0.56787109375,-4.82177734375,77.667236328125,11.74163818359375,-26.98901098901099,-17.692796092796094,-8.396581196581197,-1.74853515625,0.0693359375,0.18310546875,2.78472900390625,9.0179443359375,9.246826171875,2.399023199023199,-64.92356532356533,57.57655677655677,-0.07275390625,2.076171875,-0.10400390625,45.562744140625,6.20269775390625,-20.4315185546875,-65.97313797313797,5.547741147741148,-5.097924297924298
25:50.108,0.779296875,1.8544921875,0.3662109375,1.251220703125,74.249267578125,54.931640625,-35.53553113553114,-13.494505494505495,-42.13284493284493,-1.8447265625,-0.26806640625,0.49951171875,-47.44720458984375,-8.11004638671875,16.2200927734375,-3.2986568986568985,-66.87277167277168,50.52942612942613,-0.15966796875,1.95947265625,-1.14892578125,-157.15789794921875,204.70428466796875,-44.86846923828125,-41.38315018315018,-5.397802197802197,30.137728937728937
25:50.985,0.779296875,1.8544921875,0.3662109375,1.251220703125,74.249267578125,54.931640625,-37.33479853479853,-14.843956043956043,-34.635897435897434,-1.82080078125,0.44970703125,0.5517578125,-82.9010009765625,-12.70294189453125,18.36395263671875,4.498168498168498,-70.62124542124542,63.724053724053725,-0.32763671875,2.0205078125,-0.22265625,-0.34332275390625,12.26806640625,-29.19769287109375,-77.66837606837606,15.443711843711844,37.634676434676436
25:51.911,0.7841796875,2.09619140625,-0.1806640625,19.2413330078125,82.58056640625,35.064697265625,-18.742368742368743,1.6493284493284492,16.64322344322344,-1.8291015625,-0.20166015625,0.4716796875,-79.4830322265625,-7.66754150390625,54.35943603515625,24.29010989010989,-69.12185592185592,60.125518925518925,1.30908203125,4.13525390625,-0.43896484375,59.42535400390625,-55.938720703125,27.12249755859375,-73.62002442002442,33.28644688644688,47.380708180708176
25:52.740,0.60888671875,1.82470703125,0.04833984375,14.03045654296875,-11.16180419921875,23.87237548828125,-18.742368742368743,1.6493284493284492,16.64322344322344,-1.8291015625,-0.20166015625,0.4716796875,-79.4830322265625,-7.66754150390625,54.35943603515625,26.83907203907204,-65.52332112332113,41.23321123321123,1.30908203125,4.13525390625,-0.43896484375,46.18072509765625,12.27569580078125,-19.683837890625,-50.52942612942613,23.39047619047619,25.78949938949939
25:53.715,0.71142578125,2.47900390625,0.26611328125,9.368896484375,-7.69805908203125,-54.69512939453125,-36.435164835164834,15.893528693528692,-18.44249084249084,-2.5146484375,-0.0078125,0.80517578125,-15.05279541015625,-21.50726318359375,-17.39501953125,22.04102564102564,-64.62368742368741,32.98656898656898,-0.31103515625,1.47607421875,-0.7763671875,40.6036376953125,-20.50018310546875,-7.02667236328125,-29.687912087912085,37.634676434676436,23.690354090354088
25:54.641,0.9189453125,1.81689453125,0.37158203125,-1.373291015625,3.85284423828125,14.73236083984375,-25.639560439560437,17.842735042735043,-19.64200244200244,-1.7138671875,0.31591796875,-0.056640625,-19.08111572265625,10.3302001953125,5.37872314453125,14.993894993894994,-57.87643467643468,32.386813186813185,0.14013671875,2.0185546875,-0.0087890625,40.6036376953125,-20.50018310546875,-7.02667236328125,-61.624908424908426,38.83418803418803,-14.544078144078144
25:55.519,0.88330078125,1.927734375,0.4697265625,1.24359130859375,67.93212890625,68.1304931640625,-40.48351648351648,23.54041514041514,-33.58632478632479,-1.81689453125,-0.1591796875,0.33447265625,-72.57843017578125,-5.76019287109375,29.76226806640625,14.993894993894994,-57.87643467643468,32.386813186813185,0.01318359375,2.19921875,-1.35693359375,-147.8118896484375,249.99237060546875,-47.76763916015625,-61.624908424908426,38.83418803418803,-14.544078144078144
25:56.396,0.53662109375,2.07763671875,-0.0517578125,18.5546875,134.59014892578125,23.96392822265625,-60.87521367521367,21.14139194139194,-56.526984126984125,-1.91015625,0.36083984375,0.548828125,-85.80780029296875,-16.51763916015625,-0.3509521484375,17.54285714285714,-51.279120879120875,45.73137973137973,-0.15673828125,2.28125,-1.30712890625,50.384521484375,81.47430419921875,-109.1156005859375,-89.06373626373626,22.19096459096459,-58.92600732600732
25:57.469,0.7119140625,2.75732421875,0.44482421875,4.17327880859375,83.09173583984375,10.85662841796875,-66.57289377289376,-10.195848595848595,-48.28034188034188,-2.2607421875,0.01123046875,0.3173828125,-13.43536376953125,-30.47943115234375,19.287109375,1.0495726495726496,-52.47863247863248,48.73015873015873,0.1015625,1.9755859375,-0.43896484375,56.51092529296875,7.2174072265625,-20.416259765625,-97.31037851037851,19.34212454212454,-60.275457875457874
25:58.346,0.1201171875,2.0927734375,0.40283203125,-24.96337890625,-109.43603515625,63.7969970703125,-44.68180708180708,-14.094261294261294,-41.533089133089135,-1.86083984375,-0.24609375,0.48095703125,16.80755615234375,16.33453369140625,-8.44573974609375,2.6989010989010986,-65.52332112332113,60.87521367521367,-0.91552734375,2.8154296875,-0.60400390625,-239.52484130859375,164.8712158203125,60.23406982421875,-60.275457875457874,-4.348229548229548,28.188522588522588
25:59.273,0.46435546875,1.8779296875,0.17578125,-14.6942138671875,35.33172607421875,80.31463623046875,-39.28400488400488,-11.095482295482295,-41.98290598290598,-1.86474609375,-0.13916015625,0.7626953125,9.033203125,10.38360595703125,-14.64080810546875,1.9492063492063492,-67.02271062271062,55.92722832722833,-0.6083984375,3.43212890625,0.25048828125,160.63690185546875,-19.9127197265625,-35.888671875,-44.68180708180708,-2.848840048840049,30.137728937728937
26:00.247,1.88134765625,1.9111328125,0.86669921875,82.733154296875,43.63250732421875,30.84564208984375,-16.64322344322344,-22.49084249084249,-1.0495726495726496,-2.5732421875,-0.5380859375,0.6455078125,-63.69781494140625,-55.450439453125,27.10723876953125,2.6989010989010986,-67.32258852258852,59.825641025641026,-0.029296875,2.0419921875,0.0556640625,40.10009765625,-12.5579833984375,7.36236572265625,-43.18241758241758,7.347008547008547,17.242979242979242
26:01.174,1.8896484375,0.78076171875,-0.93359375,52.81829833984375,72.0367431640625,-28.64837646484375,-2.6989010989010986,-13.794383394383393,25.93943833943834,-2.02294921875,-0.22265625,0.26123046875,-90.88897705078125,-6.8359375,28.350830078125,19.34212454212454,-74.66959706959706,69.27179487179487,0.5380859375,2.40966796875,-1.5341796875,-220.40557861328125,249.99237060546875,-64.59808349609375,-67.02271062271062,8.096703296703296,65.37338217338217
26:02.051,1.8896484375,0.78076171875,-0.93359375,17.12799072265625,96.0235595703125,-89.68353271484375,-15.743589743589743,-11.695238095238095,3.1487179487179486,-1.8349609375,0.232421875,0.5166015625,-59.7381591796875,11.26861572265625,2.9296875,30.437606837606836,-73.17020757020757,68.22222222222221,-0.50390625,2.05859375,-0.37646484375,2.7923583984375,-26.06201171875,-58.746337890625,-14.394139194139193,56.526984126984125,77.21855921855922
26:02.880,0.96875,1.41162109375,-0.14111328125,17.12799072265625,96.0235595703125,-89.68353271484375,-15.743589743589743,-11.695238095238095,3.1487179487179486,-1.71484375,-0.45556640625,0.59619140625,5.7220458984375,7.354736328125,12.33673095703125,10.495726495726496,-67.92234432234432,17.093040293040293,-0.85693359375,1.43017578125,-1.15966796875,34.18731689453125,-31.12030029296875,-17.9595947265625,-2.848840048840049,52.928449328449325,25.639560439560437
26:03.806,0.3740234375,1.8984375,-0.00341796875,32.440185546875,29.4342041015625,-46.28753662109375,-30.587545787545785,6.147496947496947,-49.030036630036626,-2.54150390625,-0.14990234375,1.140625,-16.57867431640625,-24.7650146484375,-10.6353759765625,21.89108669108669,-65.22344322344323,29.238095238095237,0.0966796875,1.2763671875,-0.50634765625,36.17095947265625,-20.17974853515625,-5.60760498046875,-58.176312576312576,26.689133089133087,32.686691086691084
26:04.684,0.24072265625,2.30029296875,-0.16162109375,-22.9949951171875,-0.60272216796875,-9.1552734375,-32.536752136752135,24.88986568986569,-25.33968253968254,-2.54150390625,-0.14990234375,1.140625,-16.57867431640625,-24.7650146484375,-10.6353759765625,25.489621489621488,-65.22344322344323,41.98290598290598,0.0966796875,1.2763671875,-0.50634765625,36.17095947265625,-20.17974853515625,-5.60760498046875,-29.687912087912085,38.68424908424908,27.438827838827837
26:05.561,0.099609375,2.14990234375,-0.23779296875,10.0860595703125,40.6951904296875,9.36126708984375,-31.787057387057384,18.44249084249084,-14.394139194139193,-1.99755859375,0.1806640625,0.4501953125,-19.6685791015625,-4.78363037109375,10.70404052734375,25.489621489621488,-65.22344322344323,41.98290598290598,-0.04833984375,2.0322265625,-0.1630859375,31.33392333984375,-4.21905517578125,-8.1787109375,-52.02881562881563,41.533089133089135,5.097924297924298
26:06.536,0.3994140625,2.0673828125,0.36083984375,7.171630859375,92.681884765625,-0.67901611328125,-34.485958485958484,19.34212454212454,-18.59242979242979,-1.84912109375,-0.28125,0.55859375,-77.76641845703125,-7.14111328125,31.7230224609375,21.29133089133089,-62.37460317460317,38.53431013431013,0.16748046875,1.78857421875,-1.021484375,-19.61517333984375,37.20855712890625,11.77978515625,-52.02881562881563,41.533089133089135,5.097924297924298
26:07.365,0.71533203125,2.0234375,-0.2333984375,33.14971923828125,118.35479736328125,21.14105224609375,-49.329914529914525,20.09181929181929,-37.784615384615385,-1.92919921875,0.3544921875,0.26904296875,-122.8790283203125,0.78582763671875,22.36175537109375,20.39169719169719,-54.12796092796093,42.58266178266178,-0.224609375,2.05517578125,-0.2099609375,21.9268798828125,3.65447998046875,-44.80743408203125,-79.61758241758241,28.638339438339436,-47.68058608058608
26:08.243,0.54931640625,1.81884765625,0.103515625,12.4053955078125,36.9110107421875,-14.56451416015625,-65.52332112332113,-8.396581196581197,-61.32503052503052,-1.80224609375,-0.14453125,0.6328125,-55.8013916015625,9.94110107421875,18.88275146484375,-9.596092796092796,-54.12796092796093,31.037362637362637,-1.26171875,1.396484375,-0.9619140625,25.4974365234375,93.19305419921875,-18.08929443359375,-77.81831501831502,7.646886446886446,-54.727716727716725
26:09.218,0.8515625,2.125,0.51513671875,-9.13238525390625,-37.60528564453125,-55.13763427734375,-48.73015873015873,-15.443711843711844,-40.33357753357753,-1.7392578125,-0.51123046875,0.38916015625,9.72747802734375,34.67559814453125,-22.125244140625,0.5997557997557997,-60.275457875457874,55.027594627594624,-0.64013671875,1.0849609375,-0.32177734375,-99.32708740234375,-22.5067138671875,106.68182373046875,-54.12796092796093,-1.1995115995115995,47.380708180708176
26:10.046,0.8515625,2.125,0.51513671875,-40.73333740234375,-2.17437744140625,52.06298828125,-38.084493284493284,-16.043467643467643,-33.13650793650793,-1.81494140625,0.07763671875,0.3994140625,0.6103515625,11.48223876953125,1.19781494140625,5.397802197802197,-67.17264957264958,63.873992673992674,0.0439453125,2.044921875,-0.17578125,38.818359375,-5.10406494140625,-14.5111083984375,-65.67326007326007,1.3494505494505493,-7.047130647130647
26:10.973,0.5478515625,2.09326171875,-0.05859375,-40.73333740234375,-2.17437744140625,52.06298828125,-30.737484737484735,-20.69157509157509,-30.137728937728937,-1.78076171875,-0.2890625,0.68115234375,-43.99871826171875,-8.97979736328125,33.9508056640625,0.29987789987789987,-67.92234432234432,56.227106227106226,-0.68359375,1.65478515625,-0.375,-3.54766845703125,96.4202880859375,7.69805908203125,-40.33357753357753,-1.3494505494505493,31.936996336996337
26:11.802,0.79443359375,1.89599609375,0.509765625,11.92474365234375,47.4853515625,17.2119140625,-30.737484737484735,-20.69157509157509,-30.137728937728937,-1.78076171875,-0.2890625,0.68115234375,-145.233154296875,-0.1983642578125,28.25164794921875,5.847619047619047,-71.07106227106227,68.22222222222221,-0.34765625,2.0263671875,-0.2373046875,-9.185791015625,-1.40380859375,-25.482177734375,-54.12796092796093,24.589987789987788,79.91746031746031
26:12.679,0.22509765625,2.11279296875,-0.23291015625,21.24786376953125,198.822021484375,-11.3525390625,-27.88864468864469,-16.49328449328449,-15.143833943833943,-1.79296875,0.3505859375,0.3212890625,-12.1307373046875,-0.640869140625,5.19561767578125,23.09059829059829,-69.42173382173382,53.67814407814408,-0.34765625,2.0263671875,-0.2373046875,13.28277587890625,-4.08935546875,-12.29095458984375,-65.22344322344323,40.63345543345543,57.72649572649573
26:13.605,0.18994140625,1.8388671875,-0.27734375,-7.87353515625,-16.5252685546875,-0.14495849609375,-27.738705738705736,17.242979242979242,-4.947985347985348,-1.6416015625,-0.12646484375,0.76171875,-12.1307373046875,-0.640869140625,5.19561767578125,27.588766788766787,-67.77240537240537,52.17875457875458,-0.56591796875,1.21630859375,-0.50390625,27.8167724609375,94.7265625,-63.995361328125,-44.23199023199023,25.03980463980464,35.38559218559219
26:14.580,0.38818359375,2.302734375,-0.1513671875,-1.54876708984375,45.81451416015625,-22.78900146484375,-35.08571428571428,15.743589743589743,-19.34212454212454,-2.2490234375,-0.2275390625,0.90234375,-12.27569580078125,-29.31976318359375,-12.847900390625,23.09059829059829,-65.67326007326007,46.03125763125763,-0.24267578125,1.38427734375,-1.15478515625,27.8167724609375,94.7265625,-63.995361328125,-30.737484737484735,38.98412698412698,30.587545787545785
26:15.506,0.11279296875,2.1572265625,-0.12939453125,10.79559326171875,-0.6103515625,-8.087158203125,-30.887423687423688,12.594871794871795,-15.893528693528692,-2.15625,0.2626953125,0.37744140625,13.03863525390625,0.30517578125,-18.7835693359375,19.941880341880342,-61.924786324786325,44.38192918192918,0.11328125,2.02587890625,-0.10693359375,-157.95135498046875,203.74298095703125,-24.169921875,-53.078388278388275,38.98412698412698,0.5997557997557997
26:16.530,0.1005859375,1.21435546875,0.1787109375,28.77044677734375,73.516845703125,3.08990478515625,-35.68547008547009,19.19218559218559,-17.842735042735043,-1.7001953125,-0.3271484375,0.46240234375,-42.9534912109375,-21.026611328125,16.082763671875,19.941880341880342,-61.924786324786325,44.38192918192918,-0.06103515625,2.287109375,-0.685546875,-157.95135498046875,203.74298095703125,-24.169921875,-53.078388278388275,38.98412698412698,0.5997557997557997
26:17.408,0.7236328125,2.13818359375,-0.4931640625,17.51708984375,72.62420654296875,-1.21307373046875,-53.97802197802198,5.697680097680098,-34.186080586080585,-2.00390625,0.443359375,0.32080078125,-108.02459716796875,-20.04241943359375,28.0914306640625,22.94065934065934,-53.82808302808303,46.18119658119658,-0.20751953125,2.123046875,-0.13720703125,-5.43212890625,22.10235595703125,-28.289794921875,-84.86544566544566,41.533089133089135,-43.33235653235653
26:18.236,0.466796875,1.7998046875,0.14794921875,-21.728515625,-16.78466796875,-6.73675537109375,-73.47008547008546,-8.546520146520146,-52.628571428571426,-1.75,-0.2587890625,0.71533203125,-75.67596435546875,1.312255859375,28.35845947265625,0.8996336996336995,-49.329914529914525,47.230769230769226,-0.19970703125,2.42333984375,0.4853515625,110.61859130859375,136.444091796875,-15.0909423828125,-91.46275946275946,17.842735042735043,-61.624908424908426
26:19.115,0.716796875,2.01416015625,0.43212890625,6.20269775390625,-80.90972900390625,-94.85626220703125,-55.77728937728938,-12.594871794871795,-38.53431013431013,-1.736328125,-0.63623046875,0.33349609375,32.135009765625,24.14703369140625,-6.01959228515625,5.847619047619047,-57.87643467643468,61.924786324786325,-0.76708984375,1.4345703125,-0.47216796875,-106.45294189453125,-37.01019287109375,103.82843017578125,-58.026373626373626,-7.197069597069596,54.27789987789988
26:19.991,0.716796875,2.01416015625,0.43212890625,-8.819580078125,96.56524658203125,97.47314453125,-43.93211233211233,-9.895970695970696,-30.287667887667887,-2.14599609375,0.158203125,0.43603515625,-14.46533203125,3.9520263671875,11.8255615234375,3.598534798534798,-67.17264957264958,61.47496947496947,-0.23095703125,2.0205078125,-0.337890625,30.1666259765625,8.38470458984375,-2.74658203125,-66.42295482295482,4.1982905982905985,-8.396581196581197
26:20.869,0.98876953125,2.115234375,0.03076171875,-8.819580078125,96.56524658203125,97.47314453125,-43.93211233211233,-9.895970695970696,-30.287667887667887,-2.00146484375,-0.13525390625,0.46923828125,-92.01812744140625,-8.49151611328125,35.60638427734375,2.848840048840049,-64.62368742368741,55.77728937728938,-0.3525390625,2.52587890625,-0.38330078125,8.26263427734375,29.5257568359375,23.8494873046875,-47.68058608058608,-4.048351648351648,48.43028083028083
26:21.893,0.76708984375,1.9443359375,0.5283203125,36.17095947265625,80.0323486328125,-3.34930419921875,-25.639560439560437,-17.992673992673993,-18.29255189255189,-1.896484375,0.09423828125,0.431640625,-54.42047119140625,11.07025146484375,-5.54656982421875,6.147496947496947,-70.17142857142856,61.774847374847376,0.0634765625,2.15380859375,-0.4619140625,36.529541015625,249.99237060546875,-119.63653564453125,-63.42417582417582,21.14139194139194,29.388034188034187
26:22.868,0.4755859375,1.9541015625,-0.2392578125,-9.46044921875,38.360595703125,-15.08331298828125,-25.639560439560437,-17.992673992673993,-18.29255189255189,-2.0283203125,-0.2939453125,0.6728515625,-47.32513427734375,-23.62823486328125,17.8985595703125,25.78949938949939,-64.02393162393162,52.47863247863248,0.06689453125,2.02392578125,-0.0244140625,42.4346923828125,10.711669921875,-0.3814697265625,-53.82808302808303,37.934554334554335,18.142612942612942
26:23.696,0.63525390625,2.06103515625,0.03955078125,15.48004150390625,48.583984375,49.11041259765625,-33.88620268620269,10.945543345543346,-12.294993894993894,-2.0283203125,-0.2939453125,0.6728515625,30.78460693359375,-32.99713134765625,-2.3193359375,17.242979242979242,-65.67326007326007,34.036141636141636,0.06689453125,2.02392578125,-0.0244140625,-202.57568359375,42.3583984375,88.15765380859375,-45.88131868131868,32.536752136752135,-1.799267399267399
26:24.574,0.35009765625,1.9052734375,0.29296875,-25.39825439453125,13.64898681640625,33.77532958984375,-26.98901098901099,12.894749694749695,-13.944322344322345,-1.74853515625,-0.49169921875,0.13671875,30.78460693359375,-32.99713134765625,-2.3193359375,17.242979242979242,-65.67326007326007,34.036141636141636,-0.63037109375,2.052734375,-0.3408203125,-202.57568359375,42.3583984375,88.15765380859375,-45.88131868131868,32.536752136752135,-1.799267399267399
26:25.403,0.5986328125,2.57861328125,-0.1103515625,-58.08258056640625,3.204345703125,133.453369140625,-33.43638583638584,20.39169719169719,-24.739926739926737,-2.35791015625,0.1767578125,0.51904296875,-6.40869140625,-11.3677978515625,4.5623779296875,19.34212454212454,-57.42661782661782,32.08693528693529,0.05419921875,2.06591796875,-0.11572265625,15.7928466796875,-17.1661376953125,0.09918212890625,-40.18363858363858,43.03247863247863,0.5997557997557997
26:26.281,0.51123046875,1.904296875,0.21240234375,18.8751220703125,95.733642578125,44.86083984375,-50.829304029304026,12.744810744810744,-35.835409035409036,-1.6708984375,-0.06982421875,0.5205078125,-68.45855712890625,3.84521484375,32.1044921875,16.193406593406593,-54.727716727716725,39.28400488400488,-0.044921875,1.55419921875,-1.22509765625,-139.09912109375,249.99237060546875,-109.2376708984375,-65.07350427350427,43.03247863247863,-11.995115995115995
26:27.109,0.8466796875,1.9326171875,-0.22021484375,61.065673828125,42.51861572265625,37.7044677734375,-55.027594627594624,21.59120879120879,-59.07594627594627,-1.87060546875,0.27001953125,0.63916015625,-68.93157958984375,3.173828125,16.0369873046875,14.244200244200243,-44.98168498168498,39.883760683760684,-0.39453125,2.2490234375,-0.2490234375,10.040283203125,7.080078125,-57.098388671875,-80.81709401709402,25.18974358974359,-51.72893772893773
26:27.986,0.8466796875,1.9326171875,-0.22021484375,61.065673828125,42.51861572265625,37.7044677734375,-58.92600732600732,-13.644444444444444,0.8996336996336995,-1.80126953125,-0.2783203125,0.8271484375,-48.85101318359375,-6.195068359375,29.99114990234375,3.598534798534798,-50.67936507936508,58.326251526251525,0.22265625,2.1728515625,0.14453125,44.403076171875,107.74993896484375,4.87518310546875,-91.46275946275946,4.798046398046398,-46.03125763125763
26:28.815,0.658203125,1.9404296875,0.3447265625,25.76446533203125,77.9571533203125,8.68988037109375,-58.92600732600732,-13.644444444444444,0.8996336996336995,-1.80126953125,-0.2783203125,0.8271484375,49.25537109375,3.59344482421875,-7.54547119140625,5.247863247863248,-54.877655677655675,58.77606837606837,-1.00732421875,2.12451171875,-0.3330078125,-200.5157470703125,-41.28265380859375,99.06005859375,-53.67814407814408,-5.997557997557998,47.98046398046398
26:29.644,0.50341796875,1.515625,0.404296875,-2.4261474609375,-49.2095947265625,9.6588134765625,-45.88131868131868,-12.894749694749695,-36.88498168498168,-1.59033203125,-0.359375,0.13720703125,49.25537109375,3.59344482421875,-7.54547119140625,2.998778998778999,-67.77240537240537,59.52576312576312,-1.00732421875,2.12451171875,-0.3330078125,-200.5157470703125,-41.28265380859375,99.06005859375,-63.873992673992674,-1.9492063492063492,2.6989010989010986
26:30.668,0.779296875,2.14501953125,0.09619140625,-3.57818603515625,62.47711181640625,1.556396484375,-43.03247863247863,-10.795604395604395,-39.28400488400488,-2.03662109375,0.2578125,0.23193359375,-57.7545166015625,8.72802734375,6.58416748046875,14.394139194139193,-61.32503052503052,58.92600732600732,-0.826171875,1.51416015625,0.90576171875,-17.96722412109375,77.99530029296875,-48.6602783203125,-50.829304029304026,11.995115995115995,27.738705738705736
26:31.496,1.15869140625,0.40234375,1.21728515625,24.43695068359375,22.216796875,-1.1444091796875,-28.638339438339436,-12.894749694749695,-4.798046398046398,-1.802734375,-0.357421875,0.6103515625,-2.15911865234375,0.40435791015625,-1.190185546875,14.394139194139193,-61.32503052503052,58.92600732600732,-0.33935546875,1.958984375,0.21435546875,6.988525390625,-28.48052978515625,33.07342529296875,-50.829304029304026,11.995115995115995,27.738705738705736
26:32.374,1.7890625,-0.0234375,1.3095703125,15.66314697265625,0.17547607421875,19.3939208984375,16.343345543345542,-14.094261294261294,33.13650793650793,-1.90478515625,-0.0654296875,0.3125,15.25115966796875,12.62664794921875,0.48828125,24.14017094017094,-70.77118437118438,74.06984126984126,-0.427734375,2.21923828125,0.10498046875,-0.81634521484375,-0.06103515625,31.34918212890625,-54.877655677655675,29.537973137973136,42.88253968253968
26:33.252,1.93896484375,1.7890625,-0.01220703125,16.3116455078125,-29.8919677734375,-173.94256591796875,23.24053724053724,-14.244200244200243,34.036141636141636,-2.2666015625,0.08642578125,0.07177734375,30.43365478515625,22.8729248046875,-0.32806396484375,14.244200244200243,-67.02271062271062,64.02393162393162,0.20849609375,2.01123046875,0.19091796875,26.7791748046875,14.83917236328125,-0.6866455078125,-59.22588522588522,16.943101343101343,27.88864468864469
26:34.324,0.51123046875,2.11767578125,0.06005859375,-9.59014892578125,63.92669677734375,52.48260498046875,-7.496947496947497,-25.03980463980464,-6.597313797313797,-2.1064453125,-0.24365234375,0.31005859375,-87.7838134765625,-13.641357421875,41.60308837890625,2.6989010989010986,-69.57167277167277,58.77606837606837,0.53076171875,2.6943359375,-1.4755859375,-211.46392822265625,249.99237060546875,-70.1446533203125,-64.32380952380952,6.747252747252747,17.39291819291819
26:35.299,0.83349609375,1.734375,-0.111328125,34.3017578125,12.33673095703125,9.21630859375,-21.89108669108669,-12.145054945054945,2.6989010989010986,-1.8740234375,0.2705078125,0.56591796875,-87.46337890625,-6.59942626953125,45.9136962890625,17.54285714285714,-72.87032967032967,72.12063492063491,-0.13232421875,1.9755859375,-0.1611328125,13.7481689453125,26.0009765625,-24.40643310546875,-48.73015873015873,30.737484737484735,76.31892551892551
26:36.128,0.66748046875,1.7353515625,0.42333984375,-8.697509765625,56.84661865234375,3.9520263671875,-25.93943833943834,16.49328449328449,-10.495726495726496,-1.9697265625,-0.20166015625,0.47900390625,-13.2598876953125,2.2430419921875,-12.47406005859375,22.79072039072039,-67.17264957264958,35.835409035409036,-0.859375,2.82080078125,-0.95166015625,-236.48834228515625,-42.510986328125,-11.4593505859375,-19.49206349206349,59.22588522588522,33.73626373626374
26:37.103,0.89599609375,1.98779296875,-0.03076171875,-3.34930419921875,-34.33990478515625,-104.42352294921875,-38.38437118437118,7.197069597069596,-37.03492063492063,-1.7666015625,-0.02001953125,0.66015625,19.87457275390625,25.93994140625,-27.130126953125,18.742368742368743,-64.62368742368741,24.88986568986569,-0.19921875,2.91552734375,-0.08154296875,129.058837890625,11.43646240234375,-46.53167724609375,-54.727716727716725,29.388034188034187,13.344566544566543
26:37.980,0.89599609375,1.98779296875,-0.03076171875,-3.34930419921875,-34.33990478515625,-104.42352294921875,-34.036141636141636,10.045909645909646,-16.943101343101343,-2.09033203125,-0.09326171875,0.53076171875,-17.67730712890625,-13.8092041015625,36.41510009765625,21.44126984126984,-63.724053724053725,37.03492063492063,0.03369140625,2.07421875,-0.26416015625,36.58294677734375,-6.866455078125,-2.09808349609375,-33.13650793650793,32.686691086691084,29.088156288156288
26:38.858,0.76953125,2.5302734375,0.296875,44.63958740234375,-107.025146484375,-128.35693359375,-34.036141636141636,10.045909645909646,-16.943101343101343,-1.92724609375,-0.10009765625,0.52197265625,-41.51153564453125,-0.29754638671875,18.1427001953125,20.24175824175824,-60.87521367521367,43.482295482295484,-0.06689453125,2.646484375,-1.4150390625,-250.0,242.9046630859375,-49.52239990234375,-52.928449328449325,42.13284493284493,0.4498168498168498
26:39.735,0.50048828125,2.12841796875,0.58056640625,-5.94329833984375,19.02008056640625,95.95489501953125,-38.98412698412698,12.894749694749695,-17.242979242979242,-1.92724609375,-0.10009765625,0.52197265625,-41.51153564453125,-0.29754638671875,18.1427001953125,22.94065934065934,-54.12796092796093,49.329914529914525,-0.06689453125,2.646484375,-1.4150390625,7.98797607421875,40.18402099609375,-18.85986328125,-58.326251526251525,50.07960927960928,-34.485958485958484
26:40.613,0.8720703125,2.18310546875,-0.3046875,31.24237060546875,148.91815185546875,-59.26513671875,-50.07960927960928,19.49206349206349,-29.088156288156288,-2.0517578125,0.52685546875,0.31982421875,-133.7738037109375,9.3994140625,40.58074951171875,22.94065934065934,-54.12796092796093,49.329914529914525,-0.11279296875,2.11767578125,-0.23681640625,7.98797607421875,40.18402099609375,-18.85986328125,-83.96581196581197,5.547741147741148,-49.479853479853475
26:41.442,0.5947265625,1.88330078125,0.59521484375,17.6544189453125,80.71136474609375,-15.2130126953125,-75.41929181929181,-11.245421245421245,-50.07960927960928,-1.857421875,-0.1376953125,0.6005859375,-74.28741455078125,19.378662109375,11.14654541015625,-4.947985347985348,-47.98046398046398,43.63223443223443,-0.2109375,1.15966796875,-1.646484375,14.99176025390625,-124.33624267578125,38.970947265625,-83.96581196581197,5.547741147741148,-49.479853479853475
26:42.319,1.35302734375,2.744140625,0.09228515625,-1.6021728515625,92.32330322265625,-168.64776611328125,-60.125518925518925,-14.094261294261294,-45.28156288156288,-2.61962890625,-0.24853515625,0.68505859375,36.70501708984375,-45.73822021484375,-33.83636474609375,0.5997557997557997,-56.227106227106226,56.526984126984125,0.10595703125,1.1201171875,-0.13134765625,-26.63421630859375,-124.16839599609375,78.11737060546875,-55.32747252747252,-5.847619047619047,53.37826617826617
26:43.246,0.72607421875,2.37939453125,-0.04541015625,-29.44183349609375,72.07489013671875,47.78289794921875,-35.38559218559219,-19.941880341880342,-31.787057387057384,-2.177734375,-0.23779296875,0.50048828125,-17.49420166015625,-29.35791015625,18.21136474609375,4.947985347985348,-64.92356532356533,58.326251526251525,0.01611328125,1.91259765625,-0.1328125,29.4189453125,-18.5546875,-11.41357421875,-64.47374847374847,8.396581196581197,-19.042246642246642
26:44.074,0.72607421875,2.37939453125,-0.04541015625,-11.84844970703125,120.3460693359375,10.82611083984375,-32.836630036630034,-19.941880341880342,-30.137728937728937,-1.8876953125,0.078125,0.40673828125,-113.44146728515625,-18.8446044921875,36.36932373046875,0.4498168498168498,-69.87155067155066,62.67448107448107,-0.2607421875,2.19482421875,-0.904296875,-110.67962646484375,166.32080078125,-23.10943603515625,-43.18241758241758,-5.697680097680098,30.137728937728937
26:45.001,0.50830078125,1.86328125,0.36328125,19.500732421875,88.87481689453125,55.62591552734375,-29.687912087912085,-15.443711843711844,-19.19218559218559,-1.880859375,0.3837890625,0.556640625,-117.34771728515625,-7.75146484375,31.005859375,10.495726495726496,-73.76996336996336,69.57167277167277,-0.080078125,2.056640625,-0.046875,6.3934326171875,31.7840576171875,-29.50286865234375,-47.83052503052503,30.437606837606836,82.16654456654456
26:45.975,0.8271484375,2.2421875,-0.13037109375,19.500732421875,88.87481689453125,55.62591552734375,-22.04102564102564,10.795604395604395,5.547741147741148,-1.77001953125,-0.0712890625,0.69873046875,-21.8963623046875,6.46209716796875,12.85552978515625,25.93943833943834,-68.97191697191697,50.52942612942613,0.43212890625,1.53125,-1.0029296875,65.0177001953125,-146.61407470703125,14.95361328125,-53.97802197802198,49.62979242979243,58.77606837606837
26:46.853,0.3837890625,1.982421875,-0.2490234375,3.35693359375,-1.556396484375,22.25494384765625,-22.04102564102564,10.795604395604395,5.547741147741148,-2.2216796875,-0.38330078125,1.08447265625,11.77978515625,0.70953369140625,-8.5601806640625,19.49206349206349,-64.92356532356533,31.487179487179485,0.1630859375,1.6845703125,-0.5009765625,49.560546875,1.556396484375,-29.5562744140625,-45.88131868131868,29.537973137973136,32.08693528693529
26:47.780,0.58154296875,1.96142578125,0.08544921875,-6.500244140625,-6.591796875,-53.55072021484375,-38.68424908424908,14.993894993894994,-29.238095238095237,-2.2216796875,-0.38330078125,1.08447265625,-45.79925537109375,1.77764892578125,2.52532958984375,29.388034188034187,-67.02271062271062,45.13162393162393,-0.01171875,2.1123046875,-0.29296875,47.119140625,-5.18035888671875,-11.65771484375,-24.589987789987788,42.58266178266178,29.537973137973136
26:48.705,0.70556640625,1.95751953125,0.20751953125,-13.885498046875,41.23687744140625,68.8934326171875,-33.28644688644688,11.395360195360196,-11.995115995115995,-1.71728515625,0.2998046875,0.0615234375,-45.79925537109375,1.77764892578125,2.52532958984375,17.692796092796094,-59.825641025641026,38.98412698412698,-0.01171875,2.1123046875,-0.29296875,-72.08251953125,249.99237060546875,-68.5577392578125,-59.825641025641026,41.683028083028084,-11.095482295482295
26:49.583,0.7236328125,1.64306640625,0.419921875,11.14654541015625,68.04656982421875,37.04071044921875,-39.583882783882785,21.59120879120879,-22.19096459096459,-1.6318359375,-0.11376953125,0.26806640625,-54.99267578125,-14.617919921875,16.1895751953125,17.692796092796094,-59.825641025641026,38.98412698412698,-0.2666015625,1.6533203125,-1.23291015625,-72.08251953125,249.99237060546875,-68.5577392578125,-84.86544566544566,26.689133089133087,-47.53064713064713
26:50.460,1.88916015625,1.10205078125,-0.32470703125,167.999267578125,16.7694091796875,77.33917236328125,-58.92600732600732,24.88986568986569,-44.08205128205128,-1.89208984375,0.35302734375,0.50830078125,-80.74951171875,-7.904052734375,10.85662841796875,20.54163614163614,-50.37948717948718,44.98168498168498,-0.41064453125,2.10302734375,-0.10986328125,-0.60272216796875,19.0582275390625,-54.03900146484375,-84.86544566544566,26.689133089133087,-47.53064713064713
26:51.294,1.73193359375,0.87939453125,-0.86376953125,25.33721923828125,47.2564697265625,-30.82275390625,-26.83907203907204,-43.482295482295484,-23.54041514041514,-1.884765625,-0.37744140625,0.67626953125,-48.43902587890625,-10.9405517578125,19.15740966796875,4.947985347985348,-46.93089133089133,55.77728937728938,-0.05029296875,2.212890625,-0.1435546875,89.65301513671875,68.939208984375,11.0015869140625,-88.46398046398046,9.746031746031745,-44.68180708180708
26:52.167,1.3134765625,1.423828125,-0.17919921875,8.544921875,11.31439208984375,16.4031982421875,-6.897191697191697,-24.14017094017094,-45.88131868131868,-1.8798828125,-0.36083984375,0.2109375,43.06793212890625,0.52642822265625,-11.39068603515625,7.347008547008547,-58.92600732600732,62.67448107448107,-0.9892578125,2.0595703125,-0.4619140625,-152.5115966796875,-22.88055419921875,113.7847900390625,-52.628571428571426,-1.3494505494505493,55.32747252747252
26:52.996,1.3134765625,1.423828125,-0.17919921875,-6.73675537109375,69.9615478515625,17.25006103515625,-16.043467643467643,-22.64078144078144,-35.68547008547009,-1.869140625,-0.1962890625,0.5517578125,5.9661865234375,5.79071044921875,1.18255615234375,1.3494505494505493,-68.97191697191697,57.87643467643468,0.04736328125,1.96826171875,-0.13330078125,38.65814208984375,-8.758544921875,-10.1470947265625,-63.873992673992674,0.0,-0.4498168498168498
26:53.873,1.86767578125,0.77099609375,-1.02490234375,-6.73675537109375,69.9615478515625,17.25006103515625,-16.043467643467643,-22.64078144078144,-35.68547008547009,-1.7548828125,-0.14453125,0.59326171875,-87.2039794921875,-12.30621337890625,28.45001220703125,0.8996336996336995,-68.07228327228327,60.57533577533577,-1.44482421875,2.8056640625,-0.6337890625,42.96112060546875,101.6998291015625,18.02825927734375,-38.68424908424908,-1.9492063492063492,34.186080586080585
26:54.848,0.62158203125,1.9130859375,0.35986328125,10.589599609375,93.32275390625,25.3448486328125,-31.637118437118435,-15.893528693528692,-21.44126984126984,-1.8310546875,0.4189453125,0.62548828125,-71.99859619140625,5.43212890625,16.5252685546875,10.195848595848595,-73.62002442002442,71.07106227106227,0.07861328125,2.38427734375,-1.99755859375,-4.82177734375,230.15594482421875,-145.60699462890625,-60.125518925518925,29.388034188034187,72.72039072039071
26:55.725,0.74755859375,1.8759765625,0.20751953125,91.42303466796875,151.05438232421875,53.1768798828125,-31.637118437118435,-15.893528693528692,-21.44126984126984,-1.8310546875,0.4189453125,0.62548828125,6.81304931640625,14.46533203125,34.46197509765625,30.737484737484735,-68.97191697191697,56.826862026862024,0.07861328125,2.38427734375,-1.99755859375,40.4052734375,-3.7384033203125,-14.46533203125,-48.28034188034188,49.329914529914525,56.676923076923075
26:56.603,1.06103515625,2.3564453125,-0.02734375,-14.8162841796875,-107.3455810546875,-12.12310791015625,-25.33968253968254,6.447374847374848,8.546520146520146,-1.998046875,0.03564453125,1.02197265625,6.81304931640625,14.46533203125,34.46197509765625,30.737484737484735,-68.97191697191697,56.826862026862024,0.12451171875,2.03955078125,0.14501953125,40.4052734375,-3.7384033203125,-14.46533203125,-39.28400488400488,32.98656898656898,30.887423687423688
26:57.432,0.55078125,2.05126953125,0.4599609375,6.7291259765625,-12.1917724609375,-14.6636962890625,-33.28644688644688,14.244200244200243,-18.142612942612942,-1.8896484375,-0.1875,0.400390625,-7.293701171875,12.85552978515625,8.01849365234375,17.992673992673993,-62.37460317460317,42.73260073260073,-0.3251953125,2.470703125,-0.97900390625,-233.23822021484375,61.614990234375,49.93438720703125,-39.28400488400488,32.98656898656898,30.887423687423688
26:58.309,0.716796875,1.67431640625,0.00830078125,-27.30560302734375,-29.1595458984375,64.32342529296875,-31.487179487179485,16.343345543345542,-10.645665445665445,-1.70263671875,0.146484375,0.767578125,-14.3890380859375,0.22125244140625,-8.1024169921875,25.489621489621488,-64.02393162393162,45.431501831501826,-0.04931640625,2.0400390625,-0.3291015625,63.41552734375,-15.167236328125,-27.74810791015625,-51.72893772893773,43.33235653235653,4.048351648351648
26:59.235,0.7939453125,1.88916015625,0.0927734375,26.95465087890625,124.79400634765625,40.58074951171875,-52.47863247863248,-2.399023199023199,-28.188522588522588,-1.88427734375,-0.357421875,0.56591796875,-126.2054443359375,-32.87506103515625,62.80517578125,13.794383394383393,-56.676923076923075,39.883760683760684,0.2392578125,2.0322265625,0.1279296875,-31.2347412109375,28.01513671875,41.9921875,-51.429059829059824,41.38315018315018,-15.893528693528692
27:00.162,0.41796875,1.91162109375,0.2177734375,-0.40435791015625,39.8406982421875,13.4124755859375,-64.47374847374847,-16.343345543345542,-57.87643467643468,-1.8779296875,-0.00146484375,0.54345703125,-69.46563720703125,-11.260986328125,27.9388427734375,7.347008547008547,-50.829304029304026,51.129181929181925,-0.1435546875,1.71923828125,-0.47900390625,-41.412353515625,170.745849609375,-30.0750732421875,-94.31159951159951,7.946764346764346,-52.47863247863248
27:00.990,0.41796875,1.91162109375,0.2177734375,-74.9359130859375,1.68609619140625,69.976806640625,-57.42661782661782,-20.54163614163614,-43.18241758241758,-2.0625,-0.0439453125,0.45703125,-8.87298583984375,-6.06536865234375,5.92803955078125,1.4993894993894994,-56.377045177045176,59.07594627594627,-0.05615234375,2.1025390625,-0.35791015625,19.6380615234375,-9.3994140625,3.41796875,-95.66105006105006,8.546520146520146,-46.78095238095238
27:01.917,0.63916015625,2.4716796875,0.49658203125,-74.9359130859375,1.68609619140625,69.976806640625,-40.033699633699634,-17.692796092796094,-29.238095238095237,-1.71337890625,-0.31689453125,0.51220703125,-5.8135986328125,1.04522705078125,1.40380859375,1.1995115995115995,-65.22344322344323,61.17509157509157,-0.40234375,1.70947265625,-0.61669921875,-50.27008056640625,-78.05633544921875,28.4881591796875,-62.97435897435897,-4.1982905982905985,34.635897435897434
27:03.087,1.1552734375,1.337890625,0.2099609375,-42.62542724609375,-118.2861328125,-4.53948974609375,-40.48351648351648,-12.744810744810744,-46.63101343101343,-1.7978515625,-0.0517578125,0.68359375,-1.1444091796875,7.75909423828125,-20.2789306640625,3.1487179487179486,-67.92234432234432,57.27667887667887,-0.5556640625,3.1279296875,0.05615234375,140.22064208984375,-31.463623046875,-43.9910888671875,-43.78217338217338,-5.097924297924298,46.03125763125763
27:03.915,1.1552734375,1.337890625,0.2099609375,-42.62542724609375,-118.2861328125,-4.53948974609375,-5.697680097680098,-25.639560439560437,-12.294993894993894,-1.98388671875,0.1884765625,0.5458984375,-90.50750732421875,23.13995361328125,34.27886962890625,3.7484737484737485,-65.82319902319902,58.77606837606837,-0.07177734375,1.99951171875,-0.16015625,-2.197265625,40.51971435546875,14.86968994140625,-47.83052503052503,2.6989010989010986,20.99145299145299
27:05.085,0.70849609375,2.05419921875,-0.03271484375,16.8304443359375,66.87164306640625,-86.883544921875,-22.94065934065934,-14.694017094017093,-3.1487179487179486,-1.9189453125,0.4716796875,0.9814453125,-55.97686767578125,5.4931640625,-5.7373046875,21.44126984126984,-72.12063492063491,74.21978021978022,0.15185546875,2.09716796875,-2.267578125,1.46484375,249.99237060546875,-179.351806640625,-71.37094017094017,34.485958485958484,49.030036630036626
27:06.012,0.70849609375,2.05419921875,-0.03271484375,26.06964111328125,131.744384765625,12.603759765625,-29.987789987789988,8.846398046398047,-8.996336996336996,-1.7158203125,0.42041015625,0.19921875,-80.3680419921875,-5.9967041015625,22.08709716796875,26.689133089133087,-59.52576312576312,44.53186813186813,-0.04150390625,1.99658203125,-0.294921875,23.284912109375,-15.80810546875,0.83160400390625,-46.78095238095238,55.47741147741147,35.985347985347985
27:06.889,0.8623046875,1.80078125,-0.64111328125,26.06964111328125,131.744384765625,12.603759765625,-34.336019536019535,9.146275946275946,-19.791941391941393,-1.77880859375,-0.40478515625,0.3515625,-7.60650634765625,-2.32696533203125,-1.02996826171875,19.941880341880342,-65.22344322344323,42.58266178266178,-0.6025390625,1.63916015625,-1.06201171875,-64.849853515625,-63.6444091796875,32.84454345703125,-38.38437118437118,33.28644688644688,21.29133089133089
27:07.815,0.86376953125,1.8857421875,0.45654296875,29.09088134765625,-3.5858154296875,1.495361328125,-34.336019536019535,9.146275946275946,-19.791941391941393,-1.77880859375,-0.40478515625,0.3515625,36.20147705078125,10.5743408203125,-12.51220703125,25.18974358974359,-56.526984126984125,39.28400488400488,-0.16845703125,2.189453125,-0.251953125,79.33807373046875,-7.78961181640625,-42.86956787109375,-62.074725274725274,39.733821733821735,0.5997557997557997
27:08.742,0.56689453125,2.267578125,0.1123046875,33.4014892578125,-52.33001708984375,-158.447265625,-26.83907203907204,20.54163614163614,-14.694017094017093,-1.67138671875,0.1826171875,0.61279296875,-77.7435302734375,32.12738037109375,36.5753173828125,13.194627594627594,-57.87643467643468,35.985347985347985,-0.02001953125,1.93994140625,0.177734375,-10.6353759765625,-20.63751220703125,28.25927734375,-49.329914529914525,44.23199023199023,-9.296214896214895
27:09.717,1.22265625,2.6416015625,0.61376953125,45.0592041015625,159.59930419921875,-168.3349609375,-53.97802197802198,5.247863247863248,-39.583882783882785,-1.48828125,-0.1484375,0.14404296875,-77.7435302734375,32.12738037109375,36.5753173828125,6.297435897435897,-44.68180708180708,50.37948717948718,-0.02001953125,1.93994140625,0.177734375,-28.35845947265625,249.99237060546875,-93.414306640625,-84.11575091575091,11.845177045177044,-49.92967032967033
27:10.545,0.28125,1.64892578125,0.5673828125,-26.29852294921875,-30.67779541015625,-21.15631103515625,-69.57167277167277,-11.095482295482295,-86.36483516483516,-1.86962890625,0.32373046875,0.56396484375,-56.45751953125,-16.387939453125,18.05877685546875,6.297435897435897,-44.68180708180708,50.37948717948718,-0.45458984375,1.81689453125,-0.755859375,-28.35845947265625,249.99237060546875,-93.414306640625,-84.11575091575091,11.845177045177044,-49.92967032967033
27:11.374,0.4658203125,2.4384765625,0.1181640625,-97.7935791015625,32.2113037109375,60.9893798828125,-47.53064713064713,-28.788278388278385,-36.435164835164834,-2.0048828125,0.01904296875,0.57373046875,-32.89031982421875,-18.44024658203125,12.5885009765625,-3.4485958485958483,-54.12796092796093,49.62979242979243,-0.03369140625,2.05615234375,-0.13134765625,28.92303466796875,-5.43975830078125,-5.7220458984375,-90.56312576312575,10.045909645909646,-53.52820512820512
27:12.252,0.45458984375,1.95947265625,0.43115234375,-11.43646240234375,50.77362060546875,111.19842529296875,-24.88986568986569,-17.692796092796094,7.946764346764346,-1.74853515625,-0.37890625,0.55859375,-14.21356201171875,-6.9122314453125,6.76727294921875,2.0991452991452992,-59.825641025641026,58.626129426129424,-0.49658203125,1.93603515625,-0.41552734375,-76.019287109375,-26.397705078125,42.01507568359375,-59.975579975579976,-2.548962148962149,38.98412698412698
27:13.129,0.8310546875,2.06494140625,0.126953125,27.8778076171875,-18.82171630859375,-110.52703857421875,-37.634676434676436,-16.943101343101343,-33.28644688644688,-1.884765625,0.173828125,0.62646484375,12.39013671875,11.68060302734375,-6.38580322265625,2.0991452991452992,-68.67203907203907,57.27667887667887,-0.14013671875,2.12158203125,-0.41015625,65.26947021484375,6.59942626953125,-40.88592529296875,-49.479853479853475,-7.347008547008547,34.78583638583638
27:14.202,0.5830078125,1.64404296875,0.8466796875,29.62493896484375,4.150390625,-25.5279541015625,-34.036141636141636,-17.992673992673993,-38.38437118437118,-1.7041015625,-0.4931640625,0.71923828125,-21.575927734375,2.1820068359375,14.80865478515625,-4.947985347985348,-68.52210012210011,51.429059829059824,0.2890625,1.81689453125,0.087890625,61.88201904296875,5.80596923828125,27.15301513671875,-45.28156288156288,-7.197069597069596,23.84029304029304
27:15.226,1.4208984375,1.779296875,0.91943359375,-21.575927734375,-59.27276611328125,27.3895263671875,-15.293772893772893,-18.59242979242979,6.747252747252747,-1.67333984375,-0.3173828125,0.701171875,-33.7066650390625,39.73388671875,-4.974365234375,10.195848595848595,-72.42051282051281,70.77118437118438,0.12451171875,1.5283203125,-0.83544921875,-151.23748779296875,77.1636962890625,-81.512451171875,-71.37094017094017,2.6989010989010986,43.03247863247863
27:16.152,0.6474609375,2.13134765625,-0.1982421875,34.1796875,181.23626708984375,1.18255615234375,-17.39291819291819,-17.093040293040293,0.0,-2.04052734375,-0.05078125,0.4150390625,-149.2767333984375,-10.3607177734375,75.40130615234375,18.142612942612942,-75.71916971916971,74.21978021978022,-0.0888671875,2.109375,-0.35400390625,38.32244873046875,24.00970458984375,-24.7344970703125,-80.51721611721611,16.64322344322344,26.389255189255188
27:16.981,0.6474609375,2.13134765625,-0.1982421875,34.1796875,181.23626708984375,1.18255615234375,-25.78949938949939,20.99145299145299,-21.89108669108669,-1.7080078125,-0.4541015625,0.47412109375,-13.20648193359375,-6.24847412109375,-12.4664306640625,15.293772893772893,-67.77240537240537,26.83907203907204,-0.7412109375,1.73486328125,-0.9658203125,-202.0416259765625,-39.2913818359375,24.25384521484375,-18.892307692307693,51.279120879120875,12.444932844932845
27:17.858,0.0810546875,1.8212890625,0.52197265625,5.7830810546875,-27.5115966796875,62.6678466796875,-25.78949938949939,20.99145299145299,-21.89108669108669,-1.91015625,-0.0185546875,0.48828125,21.6217041015625,6.09588623046875,-3.76129150390625,13.344566544566543,-64.92356532356533,23.54041514041514,0.0126953125,2.068359375,-0.3046875,35.71319580078125,-21.30126953125,-22.247314453125,-63.57411477411477,31.037362637362637,-17.54285714285714
27:18.833,0.21826171875,2.0439453125,-0.193359375,-3.662109375,-21.15631103515625,-13.75579833984375,-33.58632478632479,20.24175824175824,-38.234432234432234,-1.91015625,-0.0185546875,0.48828125,-40.51971435546875,-1.50299072265625,19.44732666015625,26.389255189255188,-66.42295482295482,46.63101343101343,-0.13623046875,1.7763671875,-1.02392578125,54.4281005859375,30.84564208984375,13.427734375,-51.129181929181925,28.03858363858364,19.64200244200244
27:19.711,0.4111328125,2.07421875,0.296875,8.1939697265625,41.2139892578125,-17.21954345703125,-33.88620268620269,18.142612942612942,-20.841514041514042,-1.90283203125,-0.248046875,0.69677734375,-3.4332275390625,18.95904541015625,-15.40374755859375,25.639560439560437,-64.92356532356533,43.18241758241758,0.46435546875,2.22998046875,-1.3486328125,114.99786376953125,1.617431640625,-42.19818115234375,-56.526984126984125,43.18241758241758,10.195848595848595
27:20.686,0.52978515625,2.033203125,0.052734375,6.50787353515625,69.35882568359375,-29.31976318359375,-31.787057387057384,14.544078144078144,-14.094261294261294,-2.03369140625,-0.0576171875,0.923828125,-71.32720947265625,-12.97760009765625,43.39599609375,23.690354090354088,-60.72527472527472,43.33235653235653,0.46435546875,2.22998046875,-1.3486328125,11.19232177734375,105.8349609375,24.444580078125,-30.437606837606836,44.83174603174603,11.395360195360196
27:21.612,0.51806640625,2.11474609375,0.17919921875,8.148193359375,51.5289306640625,6.9732666015625,-33.58632478632479,20.99145299145299,-18.142612942612942,-1.91064453125,-0.48779296875,0.7080078125,-71.32720947265625,-12.97760009765625,43.39599609375,10.645665445665445,-53.078388278388275,39.433943833943836,-0.10986328125,2.029296875,0.06005859375,11.19232177734375,105.8349609375,24.444580078125,-74.21978021978022,14.544078144078144,-49.77973137973138
27:22.489,0.056640625,1.796875,0.13037109375,22.0184326171875,86.0748291015625,10.04791259765625,-54.427838827838826,18.742368742368743,-63.873992673992674,-1.83349609375,0.126953125,0.544921875,-64.64385986328125,-6.6375732421875,14.9688720703125,10.645665445665445,-53.078388278388275,39.433943833943836,-0.080078125,1.59228515625,-0.7578125,-31.48651123046875,249.99237060546875,-73.03619384765625,-74.21978021978022,14.544078144078144,-49.77973137973138
27:23.367,0.134765625,2.27734375,-0.3759765625,-16.90673828125,48.5076904296875,19.1192626953125,-57.42661782661782,-10.945543345543346,-56.826862026862024,-2.21875,-0.1240234375,0.490234375,-13.580322265625,-15.3350830078125,13.09967041015625,-4.798046398046398,-58.026373626373626,46.03125763125763,-0.03271484375,2.03125,-0.16748046875,7.83538818359375,3.39508056640625,3.84521484375,-78.56800976800976,5.847619047619047,-37.18485958485958
27:24.245,0.36865234375,2.013671875,0.17138671875,1.59454345703125,-0.69427490234375,-17.242431640625,-42.73260073260073,-16.49328449328449,-38.234432234432234,-1.83544921875,-0.28662109375,0.68408203125,4.5318603515625,8.64410400390625,3.79180908203125,4.798046398046398,-67.77240537240537,62.97435897435897,-0.1015625,1.822265625,-0.32568359375,-70.80078125,-50.3387451171875,21.04949951171875,-62.97435897435897,-3.4485958485958483,28.788278388278385
27:25.123,0.47265625,1.88232421875,0.11181640625,24.55902099609375,-28.63311767578125,-14.0228271484375,-35.835409035409036,-11.995115995115995,-47.230769230769226,-1.69384765625,-0.0595703125,0.623046875,17.3187255859375,17.51708984375,-9.42230224609375,2.6989010989010986,-68.07228327228327,58.476190476190474,-0.40478515625,2.2294921875,-0.48486328125,71.87652587890625,-3.99017333984375,-44.342041015625,-42.58266178266178,3.1487179487179486,41.08327228327228
27:26.243,0.5810546875,2.1484375,-0.3212890625,16.68548583984375,211.3189697265625,-51.17034912109375,-36.73504273504273,-13.944322344322345,-45.73137973137973,-1.9013671875,-0.1953125,0.4375,-157.31048583984375,-7.965087890625,62.19482421875,0.8996336996336995,-68.82197802197803,57.42661782661782,-0.2109375,1.9287109375,0.12939453125,-26.11541748046875,-6.1798095703125,33.1878662109375,-41.683028083028084,8.396581196581197,18.29255189255189
27:27.121,0.40576171875,1.7998046875,0.10498046875,24.23858642578125,49.1180419921875,-28.1524658203125,-31.637118437118435,-5.997557997557998,-8.696459096459096,-1.93798828125,-0.29345703125,0.28515625,-31.22711181640625,-25.70343017578125,27.45819091796875,19.941880341880342,-73.91990231990232,71.07106227106227,0.18603515625,0.99951171875,-0.439453125,-57.3272705078125,127.2125244140625,-19.1497802734375,-53.228327228327224,40.63345543345543,75.11941391941392
27:28.047,0.40576171875,1.7998046875,0.10498046875,23.2696533203125,176.666259765625,22.56011962890625,-30.287667887667887,16.793162393162394,-11.095482295482295,-1.8720703125,0.12451171875,0.3193359375,-25.82550048828125,5.54656982421875,-9.5672607421875,28.638339438339436,-67.77240537240537,43.33235653235653,0.15185546875,2.01953125,-0.1533203125,-7.31658935546875,-9.98687744140625,-2.49481201171875,-32.386813186813185,46.48107448107448,2.249084249084249
27:28.973,0.66162109375,2.041015625,-0.11962890625,23.2696533203125,176.666259765625,22.56011962890625,-36.435164835164834,8.546520146520146,-19.791941391941393,-1.70458984375,-0.29541015625,0.57470703125,-19.0887451171875,10.64300537109375,14.3890380859375,20.39169719169719,-65.22344322344323,44.68180708180708,0.5927734375,2.5205078125,-0.63232421875,112.48779296875,20.40863037109375,-14.5111083984375,-39.433943833943836,28.93821733821734,30.287667887667887
27:29.802,0.95849609375,1.625,0.05224609375,18.34869384765625,77.23236083984375,-6.75201416015625,-34.93577533577533,13.044688644688645,-13.344566544566543,-2.50390625,0.02099609375,0.52880859375,-9.063720703125,-55.50384521484375,-29.8919677734375,24.14017094017094,-62.074725274725274,42.43272283272283,0.5458984375,2.0595703125,-0.345703125,57.10601806640625,62.957763671875,-21.38519287109375,-59.67570207570208,40.033699633699634,11.845177045177044
27:30.777,0.70947265625,2.2568359375,-0.02978515625,-2.6702880859375,66.986083984375,-67.54302978515625,-34.93577533577533,13.044688644688645,-13.344566544566543,-2.50390625,0.02099609375,0.52880859375,-73.49395751953125,7.7667236328125,25.1617431640625,21.59120879120879,-56.227106227106226,32.98656898656898,0.5458984375,2.0595703125,-0.345703125,0.08392333984375,17.93670654296875,2.52532958984375,-29.088156288156288,50.07960927960928,4.348229548229548
27:31.655,0.66943359375,1.79443359375,-0.4755859375,-6.27899169921875,33.172607421875,35.5072021484375,-47.380708180708176,16.343345543345542,-31.037362637362637,-1.93408203125,0.21728515625,0.1865234375,-73.49395751953125,7.7667236328125,25.1617431640625,-3.8984126984126983,-47.53064713064713,31.787057387057384,-0.13427734375,2.06494140625,-0.1572265625,0.08392333984375,17.93670654296875,2.52532958984375,-85.61514041514042,12.894749694749695,-60.125518925518925
27:32.483,0.5146484375,1.97509765625,0.21337890625,17.70782470703125,144.0277099609375,37.872314453125,-63.57411477411477,-17.54285714285714,-78.41807081807082,-1.75634765625,-0.31005859375,0.50341796875,-78.0029296875,-0.92315673828125,20.5078125,-3.8984126984126983,-47.53064713064713,31.787057387057384,-0.5029296875,2.30029296875,-0.39599609375,-208.42742919921875,45.623779296875,16.3116455078125,-85.61514041514042,12.894749694749695,-60.125518925518925
27:33.361,0.595703125,1.89501953125,-0.109375,-13.81683349609375,-4.2572021484375,-14.97650146484375,-55.027594627594624,-16.793162393162394,-56.377045177045176,-1.884765625,0.08056640625,0.669921875,8.07952880859375,22.7508544921875,-28.0609130859375,-1.1995115995115995,-58.026373626373626,50.52942612942613,-0.39013671875,2.6875,-0.1103515625,116.90521240234375,11.260986328125,-59.94415283203125,-80.21733821733821,-2.998778998778999,17.692796092796094
27:34.287,0.5966796875,1.89306640625,0.43896484375,14.79339599609375,25.44403076171875,1.3580322265625,-35.835409035409036,-20.24175824175824,-33.58632478632479,-2.02880859375,-0.357421875,0.79931640625,-23.84185791015625,-14.82391357421875,8.3770751953125,-1.1995115995115995,-64.92356532356533,55.027594627594624,0.4326171875,2.05126953125,-0.0048828125,45.9747314453125,65.460205078125,0.93841552734375,-70.62124542124542,2.998778998778999,6.747252747252747
27:35.116,0.58203125,1.748046875,0.47900390625,8.4075927734375,26.20697021484375,22.1710205078125,-36.88498168498168,-12.744810744810744,-46.33113553113553,-1.6884765625,-0.306640625,0.33984375,-23.76556396484375,-12.298583984375,2.7313232421875,1.9492063492063492,-68.52210012210011,55.92722832722833,-0.11376953125,2.10595703125,-1.14892578125,-209.4879150390625,158.5235595703125,-48.39324951171875,-40.18363858363858,-2.249084249084249,41.533089133089135
27:35.993,0.58203125,1.748046875,0.47900390625,16.83807373046875,10.68878173828125,-35.064697265625,-26.83907203907204,-18.29255189255189,-21.59120879120879,-1.896484375,0.19482421875,0.51904296875,-40.13824462890625,6.37054443359375,4.7607421875,9.746031746031745,-70.17142857142856,66.72283272283272,-0.5419921875,3.01220703125,0.1875,109.62677001953125,-11.016845703125,-69.74029541015625,-70.92112332112332,4.498168498168498,37.03492063492063
27:37.017,0.6083984375,2.1787109375,0.283203125,7.07244873046875,136.03973388671875,54.11529541015625,-23.54041514041514,-11.695238095238095,-0.29987789987789987,-1.837890625,-0.0654296875,0.44873046875,-134.34600830078125,-16.79229736328125,40.73333740234375,17.242979242979242,-72.72039072039071,69.87155067155066,-0.27880859375,2.04541015625,-0.47021484375,-3.9825439453125,2.9754638671875,5.21087646484375,-83.36605616605617,11.095482295482295,25.78949938949939
27:37.943,0.6474609375,2.18994140625,0.0439453125,7.07244873046875,136.03973388671875,54.11529541015625,-22.49084249084249,19.64200244200244,-9.446153846153846,-1.888671875,-0.3642578125,0.31103515625,-4.2266845703125,-6.8817138671875,13.5650634765625,22.79072039072039,-67.47252747252747,41.08327228327228,-0.6708984375,1.017578125,-0.181640625,-53.77960205078125,108.428955078125,42.8619384765625,-13.494505494505495,47.380708180708176,10.045909645909646
27:38.870,0.84521484375,1.837890625,0.26611328125,-7.57598876953125,-97.16796875,-21.820068359375,-22.49084249084249,19.64200244200244,-9.446153846153846,-1.880859375,-0.05224609375,0.33544921875,53.56597900390625,-30.09033203125,3.326416015625,10.195848595848595,-66.57289377289376,23.24053724053724,0.17138671875,2.02294921875,-0.1416015625,34.69085693359375,-14.82391357421875,-12.6495361328125,-15.293772893772893,40.48351648351648,2.998778998778999
27:39.796,0.6181640625,2.5419921875,0.0,-110.5499267578125,-73.03619384765625,134.52911376953125,-30.587545787545785,19.042246642246642,-35.08571428571428,-1.880859375,-0.05224609375,0.33544921875,-38.2537841796875,-5.767822265625,15.6402587890625,12.294993894993894,-64.17387057387057,27.738705738705736,0.71875,3.01025390625,1.2119140625,104.63714599609375,36.07940673828125,8.697509765625,-59.22588522588522,28.93821733821734,11.095482295482295
27:40.722,0.701171875,1.83056640625,0.21875,35.19439697265625,91.65191650390625,-22.216796875,-39.883760683760684,2.848840048840049,-33.88620268620269,-1.88818359375,-0.16064453125,0.7109375,-0.00762939453125,12.176513671875,-24.0478515625,22.19096459096459,-61.924786324786325,43.03247863247863,-0.0517578125,1.97705078125,-1.525390625,119.7662353515625,-46.051025390625,-54.92401123046875,-52.32869352869353,39.733821733821735,7.946764346764346
27:41.648,0.8173828125,2.15771484375,0.033203125,-12.5732421875,5.63812255859375,-28.62548828125,-30.737484737484735,7.347008547008547,-11.995115995115995,-2.0185546875,0.18798828125,0.62939453125,-0.00762939453125,12.176513671875,-24.0478515625,22.49084249084249,-61.924786324786325,37.03492063492063,-0.0517578125,1.97705078125,-1.525390625,119.7662353515625,-46.051025390625,-54.92401123046875,-30.737484737484735,42.58266178266178,10.045909645909646
27:42.477,0.697265625,2.513671875,0.39599609375,13.916015625,93.77288818359375,-0.49591064453125,-32.836630036630034,20.24175824175824,-20.54163614163614,-2.38671875,-0.14599609375,0.73681640625,-38.57421875,-39.97039794921875,11.4898681640625,22.49084249084249,-61.924786324786325,37.03492063492063,0.3623046875,2.18896484375,-0.0224609375,26.824951171875,-31.1126708984375,10.44464111328125,-72.57045177045177,41.98290598290598,-32.836630036630034
