time,hand_accelerometer_x,hand_accelerometer_y,hand_accelerometer_z,hand_gyroscope_x,hand_gyroscope_y,hand_gyroscope_z,hand_magnetometer_x,hand_magnetometer_y,hand_magnetometer_z,ankle_accelerometer_x,ankle_accelerometer_y,ankle_accelerometer_z,ankle_gyroscope_x,ankle_gyroscope_y,ankle_gyroscope_z,ankle_magnetometer_x,ankle_magnetometer_y,ankle_magnetometer_z,chest_accelerometer_x,chest_accelerometer_y,chest_accelerometer_z,chest_gyroscope_x,chest_gyroscope_y,chest_gyroscope_z,chest_magnetometer_x,chest_magnetometer_y,chest_magnetometer_z
14:08.786,-0.02685546875,0.14892578125,2.10107421875,2.99072265625,13.37432861328125,-32.87506103515625,18.29255189255189,26.23931623931624,39.733821733821735,-1.654296875,-0.7099609375,0.76171875,-1.739501953125,1.800537109375,1.28936767578125,30.287667887667887,-72.27057387057387,89.96336996336996,0.47412109375,2.0205078125,0.06640625,-1.18255615234375,0.57220458984375,1.495361328125,-57.57655677655677,23.24053724053724,46.93089133089133
14:09.566,-0.0751953125,0.7177734375,2.0419921875,10.49041748046875,-14.57977294921875,-22.16339111328125,23.84029304029304,25.18974358974359,50.07960927960928,-1.63720703125,-0.70166015625,0.76708984375,-9.7198486328125,-2.93731689453125,2.50244140625,28.638339438339436,-71.82075702075701,89.36361416361416,0.455078125,2.0166015625,0.064453125,-0.9613037109375,0.8087158203125,0.28228759765625,-57.42661782661782,21.59120879120879,46.33113553113553
14:10.346,-0.0751953125,0.7177734375,2.0419921875,10.49041748046875,-14.57977294921875,-22.16339111328125,12.294993894993894,28.788278388278385,31.337240537240536,-1.638671875,-0.6845703125,0.80029296875,-1.04522705078125,-0.7781982421875,-0.81634521484375,32.386813186813185,-71.37094017094017,90.11330891330891,0.45458984375,2.0234375,0.06494140625,-0.396728515625,0.40435791015625,0.396728515625,-59.07594627594627,23.99023199023199,48.28034188034188
14:11.126,0.10595703125,-0.29052734375,2.01318359375,-7.5225830078125,-4.547119140625,-3.68499755859375,12.294993894993894,28.788278388278385,31.337240537240536,-1.638671875,-0.6845703125,0.80029296875,-1.04522705078125,-0.7781982421875,-0.81634521484375,30.887423687423688,-69.87155067155066,90.71306471306471,0.45458984375,2.0234375,0.06494140625,-0.396728515625,0.40435791015625,0.396728515625,-58.77606837606837,23.24053724053724,48.28034188034188
14:11.906,-0.12158203125,0.62109375,2.00146484375,-10.162353515625,-17.1356201171875,33.966064453125,23.24053724053724,25.639560439560437,52.47863247863248,-1.63427734375,-0.75537109375,0.751953125,-3.509521484375,1.99127197265625,0.91552734375,30.887423687423688,-69.87155067155066,90.71306471306471,0.4150390625,2.0361328125,0.06982421875,-0.885009765625,4.50897216796875,0.2288818359375,-58.77606837606837,23.24053724053724,48.28034188034188
14:12.686,-0.0048828125,0.76220703125,2.04638671875,9.39178466796875,7.65228271484375,-27.0843505859375,11.845177045177044,28.03858363858364,34.336019536019535,-1.669921875,-0.69873046875,0.73974609375,-9.857177734375,0.86212158203125,5.828857421875,31.037362637362637,-70.17142857142856,90.26324786324786,0.361328125,2.03759765625,0.05859375,-0.8697509765625,2.25830078125,-0.81634521484375,-58.326251526251525,23.24053724053724,48.58021978021978
14:13.466,-0.0048828125,0.76220703125,2.04638671875,-4.60052490234375,-3.25775146484375,4.974365234375,15.143833943833943,28.788278388278385,35.68547008547009,-1.6533203125,-0.6953125,0.7587890625,-0.67901611328125,0.23651123046875,2.32696533203125,33.28644688644688,-70.17142857142856,90.26324786324786,0.30712890625,2.03662109375,0.0810546875,-0.6256103515625,0.7476806640625,3.448486328125,-59.825641025641026,26.23931623931624,46.18119658119658
14:14.246,0.037109375,-0.2119140625,2.11669921875,-4.60052490234375,-3.25775146484375,4.974365234375,15.143833943833943,28.788278388278385,35.68547008547009,-1.6533203125,-0.6953125,0.7587890625,-0.46539306640625,-0.25177001953125,0.55694580078125,32.836630036630034,-71.52087912087912,91.01294261294261,0.291015625,2.0458984375,0.0673828125,-1.12152099609375,0.60272216796875,2.79998779296875,-59.07594627594627,26.83907203907204,47.230769230769226
14:15.075,-0.13916015625,0.73876953125,1.99365234375,-11.627197265625,-26.1993408203125,39.61944580078125,23.39047619047619,25.78949938949939,51.87887667887668,-1.62744140625,-0.705078125,0.73583984375,-0.46539306640625,-0.25177001953125,0.55694580078125,32.836630036630034,-71.52087912087912,91.01294261294261,0.291015625,2.0458984375,0.0673828125,-1.12152099609375,0.60272216796875,2.79998779296875,-59.07594627594627,26.83907203907204,47.230769230769226
14:15.855,-0.17919921875,0.62109375,2.11474609375,4.180908203125,34.90447998046875,-32.2113037109375,13.644444444444444,31.637118437118435,34.336019536019535,-1.6240234375,-0.724609375,0.7431640625,-4.26483154296875,-4.2877197265625,3.3111572265625,32.536752136752135,-71.52087912087912,89.51355311355312,0.29052734375,2.046875,0.072265625,-1.15966796875,1.25885009765625,1.52587890625,-58.476190476190474,26.389255189255188,46.03125763125763
14:16.635,-0.1640625,-0.09375,1.97265625,-19.73724365234375,-6.0577392578125,-1.35040283203125,9.146275946275946,30.137728937728937,31.936996336996337,-1.6064453125,-0.7119140625,0.8046875,-3.4027099609375,-1.88446044921875,0.0,31.637118437118435,-69.57167277167277,91.46275946275946,0.291015625,2.04541015625,0.0712890625,0.1983642578125,-0.7171630859375,0.701904296875,-58.026373626373626,25.489621489621488,46.93089133089133
14:17.415,-0.1640625,-0.09375,1.97265625,-19.73724365234375,-6.0577392578125,-1.35040283203125,9.146275946275946,28.488400488400487,39.433943833943836,-1.71728515625,-0.64404296875,0.7998046875,2.17437744140625,0.48065185546875,-3.63922119140625,32.98656898656898,-69.57167277167277,92.2124542124542,0.29541015625,2.0458984375,0.07177734375,-1.5869140625,-0.95367431640625,2.288818359375,-58.476190476190474,23.39047619047619,47.380708180708176
14:18.195,-0.0576171875,0.2705078125,2.1240234375,10.8642578125,-18.890380859375,0.3662109375,9.146275946275946,28.488400488400487,39.433943833943836,-1.71728515625,-0.64404296875,0.7998046875,-7.4462890625,-0.51116943359375,1.16729736328125,32.386813186813185,-71.37094017094017,91.76263736263736,0.29541015625,2.0458984375,0.07177734375,-1.82342529296875,-1.39617919921875,1.52587890625,-56.377045177045176,25.639560439560437,47.08083028083028
14:18.975,-0.34375,0.81005859375,1.97802734375,5.43212890625,5.13458251953125,-14.56451416015625,11.395360195360196,28.638339438339436,40.033699633699634,-1.6591796875,-0.67626953125,0.6982421875,-7.4462890625,-0.51116943359375,1.16729736328125,32.386813186813185,-71.37094017094017,91.76263736263736,0.3173828125,2.04931640625,0.07080078125,-1.82342529296875,-1.39617919921875,1.52587890625,-56.377045177045176,25.639560439560437,47.08083028083028
14:19.852,-0.08154296875,0.05322265625,2.02490234375,-8.0413818359375,34.942626953125,-5.615234375,8.246642246642246,31.787057387057384,34.93577533577533,-1.70361328125,-0.67333984375,0.70654296875,-6.5155029296875,-2.2735595703125,2.3040771484375,33.43638583638584,-70.62124542124542,90.41318681318681,0.3115234375,2.044921875,0.07177734375,-0.518798828125,2.31170654296875,0.3662109375,-58.476190476190474,25.18974358974359,46.03125763125763
14:20.633,-0.07763671875,-0.3642578125,2.2734375,-9.49859619140625,-14.07623291015625,-10.07843017578125,14.843956043956043,28.93821733821734,40.33357753357753,-1.70849609375,-0.6630859375,0.7548828125,0.0,2.6702880859375,-1.18255615234375,33.43638583638584,-72.42051282051281,90.41318681318681,0.29638671875,2.04736328125,0.060546875,-0.57220458984375,-0.80108642578125,3.3721923828125,-57.12673992673992,25.18974358974359,47.08083028083028
14:21.461,-0.07763671875,-0.3642578125,2.2734375,-2.57110595703125,-24.35302734375,6.9580078125,13.644444444444444,25.93943833943834,48.28034188034188,-1.68701171875,-0.693359375,0.7392578125,4.669189453125,-1.708984375,-0.579833984375,32.98656898656898,-69.87155067155066,91.16288156288157,0.27685546875,2.05078125,0.0654296875,-1.03759765625,0.1983642578125,1.8768310546875,-56.526984126984125,23.690354090354088,47.230769230769226
14:22.241,0.14990234375,0.41552734375,2.1083984375,-2.57110595703125,-24.35302734375,6.9580078125,13.644444444444444,25.93943833943834,48.28034188034188,-1.68701171875,-0.693359375,0.7392578125,2.74658203125,4.180908203125,2.6702880859375,33.73626373626374,-71.37094017094017,90.41318681318681,0.27685546875,2.05078125,0.0654296875,-0.8544921875,0.946044921875,2.58636474609375,-58.026373626373626,27.288888888888888,46.93089133089133
14:23.070,-0.240234375,0.74560546875,2.12060546875,12.65716552734375,-23.78082275390625,-18.402099609375,12.294993894993894,26.689133089133087,43.18241758241758,-1.677734375,-0.66650390625,0.71484375,2.74658203125,4.180908203125,2.6702880859375,33.73626373626374,-71.37094017094017,90.41318681318681,0.30126953125,2.04833984375,0.07080078125,-0.8544921875,0.946044921875,2.58636474609375,-58.026373626373626,27.288888888888888,46.93089133089133
14:23.850,0.515625,-0.16259765625,1.89111328125,17.059326171875,13.95416259765625,1.96075439453125,17.54285714285714,28.488400488400487,42.58266178266178,-1.6357421875,-0.68017578125,0.79833984375,-6.78253173828125,11.3372802734375,4.70733642578125,33.73626373626374,-70.32136752136752,90.41318681318681,0.32080078125,2.04541015625,0.0625,-1.10626220703125,1.01470947265625,1.21307373046875,-57.42661782661782,24.88986568986569,46.63101343101343
14:24.679,0.58544921875,-0.5126953125,1.853515625,20.89691162109375,-29.54864501953125,4.6539306640625,18.29255189255189,22.04102564102564,50.37948717948718,-1.609375,-0.7646484375,0.80859375,1.59454345703125,-6.52313232421875,-5.1116943359375,30.437606837606836,-72.12063492063491,91.16288156288157,0.3251953125,2.03955078125,0.0771484375,-0.41961669921875,0.06103515625,2.55584716796875,-58.176312576312576,24.88986568986569,48.13040293040293
14:25.459,0.58544921875,-0.5126953125,1.853515625,-12.420654296875,-14.5721435546875,3.77655029296875,19.64200244200244,18.142612942612942,60.275457875457874,-1.59326171875,-0.83740234375,0.76611328125,-1.068115234375,-16.63970947265625,-1.71661376953125,32.08693528693529,-72.72039072039071,92.36239316239316,0.099609375,2.06103515625,0.06005859375,-0.57220458984375,2.7008056640625,0.0457763671875,-57.42661782661782,24.88986568986569,48.73015873015873
14:26.287,0.4033203125,0.359375,1.96630859375,-12.420654296875,-14.5721435546875,3.77655029296875,15.593650793650793,19.64200244200244,49.179975579975576,-1.572265625,-0.84130859375,0.79052734375,-8.50677490234375,3.91387939453125,0.6561279296875,33.43638583638584,-71.82075702075701,92.2124542124542,0.2314453125,2.05615234375,0.0615234375,-1.02996826171875,2.09808349609375,1.02996826171875,-57.72649572649573,28.488400488400487,46.33113553113553
14:27.214,0.25,0.68505859375,1.859375,1.04522705078125,19.744873046875,-14.97650146484375,15.593650793650793,19.64200244200244,49.179975579975576,-1.572265625,-0.84130859375,0.79052734375,-5.1116943359375,2.79998779296875,2.96783447265625,33.43638583638584,-72.12063492063491,94.31159951159951,0.248046875,2.0498046875,0.0703125,-1.007080078125,1.6937255859375,0.80108642578125,-57.57655677655677,26.23931623931624,45.88131868131868
14:28.091,0.2021484375,-0.1630859375,1.97802734375,3.875732421875,33.13446044921875,-1.74713134765625,16.49328449328449,23.84029304029304,44.53186813186813,-1.61083984375,-0.78271484375,0.84130859375,-5.1116943359375,2.79998779296875,2.96783447265625,32.686691086691084,-75.41929181929181,92.81221001221,0.248046875,2.0498046875,0.0703125,-1.007080078125,1.6937255859375,0.80108642578125,-56.826862026862024,26.23931623931624,45.431501831501826
14:28.920,0.30029296875,-0.21044921875,1.95751953125,6.378173828125,1.1749267578125,-22.369384765625,17.242979242979242,21.59120879120879,51.429059829059824,-1.5771484375,-0.75439453125,0.87646484375,-2.288818359375,-0.69427490234375,2.44140625,32.686691086691084,-75.41929181929181,92.81221001221,0.11669921875,2.0625,0.041015625,-0.87738037109375,-1.41143798828125,5.92041015625,-56.826862026862024,26.23931623931624,45.431501831501826
14:29.700,0.13037109375,0.4248046875,2.0078125,-15.31982421875,-2.92205810546875,42.205810546875,16.343345543345542,20.39169719169719,53.67814407814408,-1.6171875,-0.8134765625,0.7763671875,3.45611572265625,-3.4637451171875,0.34332275390625,33.28644688644688,-74.06984126984126,93.41196581196581,0.22509765625,2.0517578125,0.07080078125,-1.04522705078125,-0.51116943359375,2.73895263671875,-56.377045177045176,28.488400488400487,46.03125763125763
14:30.480,0.13037109375,0.4248046875,2.0078125,10.38360595703125,42.39654541015625,-34.40093994140625,16.343345543345542,21.44126984126984,47.08083028083028,-1.6474609375,-0.759765625,0.77685546875,-8.544921875,1.04522705078125,4.6539306640625,34.336019536019535,-73.02026862026862,93.41196581196581,0.1884765625,2.05615234375,0.0595703125,-0.9918212890625,1.24359130859375,0.8544921875,-58.476190476190474,28.188522588522588,45.28156288156288
14:31.260,0.1220703125,0.60986328125,1.984375,10.38360595703125,42.39654541015625,-34.40093994140625,16.343345543345542,21.44126984126984,47.08083028083028,-1.59619140625,-0.8095703125,0.818359375,-3.997802734375,-2.777099609375,2.3651123046875,33.73626373626374,-75.11941391941392,90.11330891330891,0.2001953125,2.0556640625,0.06787109375,-0.9765625,0.8392333984375,1.06048583984375,-58.176312576312576,27.438827838827837,44.23199023199023
14:32.137,0.5400390625,-0.4951171875,1.98876953125,0.80108642578125,35.30120849609375,28.70941162109375,17.093040293040293,27.13894993894994,42.43272283272283,-1.59619140625,-0.8095703125,0.818359375,1.59454345703125,0.91552734375,2.7618408203125,33.88620268620269,-71.97069597069597,92.66227106227106,0.2001953125,2.0556640625,0.06787109375,-1.01470947265625,1.800537109375,1.27410888671875,-59.22588522588522,27.13894993894994,46.33113553113553
14:32.966,0.61669921875,-0.09716796875,1.94189453125,-18.463134765625,-23.4222412109375,17.2271728515625,24.739926739926737,17.54285714285714,58.326251526251525,-1.59033203125,-0.736328125,0.7919921875,1.59454345703125,0.91552734375,2.7618408203125,33.88620268620269,-71.97069597069597,92.66227106227106,0.19091796875,2.064453125,0.0703125,-1.01470947265625,1.800537109375,1.27410888671875,-59.22588522588522,27.13894993894994,46.33113553113553
14:33.844,0.2373046875,0.85302734375,1.9921875,-3.753662109375,-5.14984130859375,12.18414306640625,14.694017094017093,22.34090354090354,49.329914529914525,-1.662109375,-0.794921875,0.67041015625,0.4119873046875,-4.21905517578125,-1.99127197265625,34.635897435897434,-74.51965811965812,93.41196581196581,0.169921875,2.052734375,0.06982421875,-0.885009765625,0.51116943359375,2.41851806640625,-57.42661782661782,26.389255189255188,46.03125763125763
14:34.819,0.4052734375,-0.0224609375,1.943359375,11.02447509765625,62.5,2.3345947265625,15.743589743589743,28.03858363858364,43.18241758241758,-1.6494140625,-0.76171875,0.75,-2.40325927734375,-0.32806396484375,1.617431640625,34.635897435897434,-73.47008547008546,88.16410256410256,0.20751953125,2.0537109375,0.068359375,-1.1444091796875,1.8310546875,-0.1220703125,-56.826862026862024,28.338461538461537,46.93089133089133
14:35.697,0.47705078125,-0.84228515625,2.31201171875,-12.664794921875,34.52301025390625,-11.7645263671875,12.444932844932845,24.29010989010989,46.48107448107448,-1.62451171875,-0.7236328125,0.84716796875,4.57763671875,-2.51007080078125,1.41143798828125,32.686691086691084,-75.41929181929181,93.26202686202686,0.228515625,2.0498046875,0.076171875,-0.030517578125,0.1373291015625,1.5869140625,-58.77606837606837,27.288888888888888,47.98046398046398
14:36.476,0.47705078125,-0.84228515625,2.31201171875,-21.209716796875,1.6632080078125,26.46636962890625,24.88986568986569,17.39291819291819,59.22588522588522,-1.5966796875,-0.81005859375,0.79541015625,0.5035400390625,-4.9591064453125,-4.638671875,32.836630036630034,-74.51965811965812,92.36239316239316,0.20556640625,2.05712890625,0.0693359375,-1.39617919921875,1.13677978515625,2.6702880859375,-57.12673992673992,27.13894993894994,46.03125763125763
14:37.257,0.123046875,0.369140625,1.94189453125,-21.209716796875,1.6632080078125,26.46636962890625,24.88986568986569,17.39291819291819,59.22588522588522,-1.60888671875,-0.79443359375,0.74951171875,-4.364013671875,2.11334228515625,3.56292724609375,32.686691086691084,-74.66959706959706,93.26202686202686,0.1904296875,2.0546875,0.0615234375,-1.52587890625,1.922607421875,2.8839111328125,-59.825641025641026,28.03858363858364,46.48107448107448
14:38.085,-0.04248046875,0.9375,2.0126953125,3.44085693359375,-33.27178955078125,-13.31329345703125,9.296214896214895,27.88864468864469,39.28400488400488,-1.60888671875,-0.79443359375,0.74951171875,-4.364013671875,2.11334228515625,3.56292724609375,35.38559218559219,-73.76996336996336,92.36239316239316,0.1904296875,2.0546875,0.0615234375,-1.52587890625,1.922607421875,2.8839111328125,-58.026373626373626,28.638339438339436,46.93089133089133
14:38.915,0.0361328125,0.6044921875,1.9814453125,11.84844970703125,52.34527587890625,-12.91656494140625,9.296214896214895,31.787057387057384,38.68424908424908,-1.5791015625,-0.7685546875,0.8046875,-4.11224365234375,0.1678466796875,4.05120849609375,35.38559218559219,-73.76996336996336,92.36239316239316,0.2001953125,2.05615234375,0.0615234375,-0.762939453125,1.57928466796875,1.0986328125,-58.026373626373626,28.638339438339436,46.93089133089133
14:39.791,-0.2333984375,0.46240234375,1.95166015625,-38.99383544921875,-3.631591796875,19.56939697265625,3.1487179487179486,31.637118437118435,26.83907203907204,-1.57470703125,-0.81640625,0.8349609375,-3.11279296875,2.593994140625,5.2337646484375,33.58632478632479,-73.02026862026862,92.66227106227106,0.20556640625,2.0595703125,0.0693359375,-0.83160400390625,1.1138916015625,1.3580322265625,-59.67570207570208,27.13894993894994,48.43028083028083
14:40.571,-0.05810546875,0.53369140625,2.08837890625,28.49578857421875,17.28057861328125,-3.63922119140625,-1.6493284493284492,31.487179487179485,23.24053724053724,-1.59375,-0.76318359375,0.869140625,0.48065185546875,-3.95965576171875,-1.77001953125,33.88620268620269,-73.02026862026862,93.41196581196581,0.21533203125,2.0556640625,0.08251953125,-0.60272216796875,2.197265625,2.34222412109375,-58.77606837606837,26.83907203907204,48.28034188034188
14:41.400,-0.05810546875,0.53369140625,2.08837890625,28.49578857421875,17.28057861328125,-3.63922119140625,2.399023199023199,28.788278388278385,26.539194139194137,-1.63720703125,-0.72998046875,0.81689453125,2.3956298828125,-3.2501220703125,-0.46539306640625,32.386813186813185,-74.36971916971916,92.5123321123321,0.23193359375,2.04833984375,0.06201171875,-1.46484375,2.47955322265625,2.60162353515625,-58.326251526251525,26.539194139194137,47.230769230769226
14:42.180,-0.3046875,0.939453125,1.7978515625,3.92913818359375,-4.45556640625,5.57708740234375,2.399023199023199,28.788278388278385,26.539194139194137,-1.63720703125,-0.72998046875,0.81689453125,-7.36236572265625,3.0364990234375,3.89862060546875,34.485958485958484,-73.91990231990232,90.41318681318681,0.23193359375,2.04833984375,0.06201171875,-1.06048583984375,1.1749267578125,0.81634521484375,-57.12673992673992,28.188522588522588,47.08083028083028
14:43.057,-0.4111328125,0.99072265625,1.8623046875,-29.80804443359375,8.14056396484375,-1.54876708984375,14.544078144078144,34.336019536019535,35.23565323565323,-1.5849609375,-0.7822265625,0.81494140625,-7.36236572265625,3.0364990234375,3.89862060546875,34.485958485958484,-73.91990231990232,90.41318681318681,0.20458984375,2.05810546875,0.07080078125,-1.06048583984375,1.1749267578125,0.81634521484375,-57.12673992673992,28.188522588522588,47.08083028083028
14:43.837,-0.27734375,0.6240234375,2.00146484375,30.181884765625,38.21563720703125,-57.2052001953125,-0.29987789987789987,31.787057387057384,13.344566544566543,-1.61962890625,-0.76953125,0.8544921875,-1.74713134765625,-0.99945068359375,-0.12969970703125,32.836630036630034,-73.02026862026862,92.06251526251526,0.20849609375,2.048828125,0.06298828125,-0.762939453125,1.10626220703125,2.2125244140625,-58.026373626373626,28.03858363858364,47.98046398046398
14:44.617,-0.490234375,0.7041015625,1.802734375,-4.974365234375,-18.1427001953125,-12.664794921875,7.347008547008547,31.637118437118435,30.287667887667887,-1.61279296875,-0.76904296875,0.81201171875,-5.62286376953125,-1.33514404296875,3.36456298828125,34.78583638583638,-73.62002442002442,91.76263736263736,0.21044921875,2.05810546875,0.06689453125,-0.64849853515625,0.75531005859375,1.953125,-57.72649572649573,27.738705738705736,47.08083028083028
14:45.446,-0.490234375,0.7041015625,1.802734375,-42.62542724609375,-17.21954345703125,20.263671875,8.096703296703296,40.48351648351648,25.18974358974359,-1.57421875,-0.80322265625,0.8515625,-1.88446044921875,2.44903564453125,3.53240966796875,36.88498168498168,-73.76996336996336,91.6126984126984,0.21533203125,2.05224609375,0.06591796875,-0.89263916015625,1.96075439453125,0.92315673828125,-58.326251526251525,28.03858363858364,46.18119658119658
14:46.275,-0.31982421875,0.32177734375,1.9384765625,-42.62542724609375,-17.21954345703125,20.263671875,8.096703296703296,40.48351648351648,25.18974358974359,-1.57421875,-0.80322265625,0.8515625,-1.922607421875,-1.46484375,0.8544921875,33.88620268620269,-74.81953601953602,92.36239316239316,0.21533203125,2.05224609375,0.06591796875,-1.36566162109375,-0.78582763671875,3.0517578125,-58.77606837606837,25.78949938949939,45.431501831501826
14:47.055,-0.23779296875,0.70751953125,1.92626953125,-0.885009765625,-8.03375244140625,42.0684814453125,5.397802197802197,31.037362637362637,27.438827838827837,-1.62353515625,-0.74169921875,0.8251953125,-1.922607421875,-1.46484375,0.8544921875,33.88620268620269,-74.81953601953602,92.36239316239316,0.2080078125,2.064453125,0.06884765625,-1.36566162109375,-0.78582763671875,3.0517578125,-58.77606837606837,25.78949938949939,45.431501831501826
14:47.835,-0.5517578125,0.818359375,1.9482421875,-12.61138916015625,-6.66046142578125,-22.27020263671875,6.747252747252747,32.08693528693529,32.836630036630034,-1.5888671875,-0.77587890625,0.8427734375,-5.74493408203125,1.8310546875,3.8909912109375,33.73626373626374,-73.62002442002442,93.26202686202686,0.197265625,2.05224609375,0.05810546875,-1.24359130859375,0.2899169921875,1.434326171875,-57.12673992673992,28.93821733821734,47.380708180708176
14:48.615,-0.33349609375,0.517578125,2.02978515625,43.43414306640625,35.2935791015625,6.95037841796875,3.1487179487179486,34.78583638583638,20.39169719169719,-1.59326171875,-0.75390625,0.79736328125,-0.1983642578125,0.0152587890625,-1.5716552734375,34.78583638583638,-74.36971916971916,91.76263736263736,0.21484375,2.052734375,0.0732421875,-1.1138916015625,0.72479248046875,2.25067138671875,-56.826862026862024,27.288888888888888,47.230769230769226
14:49.395,-0.33349609375,0.517578125,2.02978515625,43.43414306640625,35.2935791015625,6.95037841796875,7.047130647130647,29.83785103785104,31.337240537240536,-1.60107421875,-0.78369140625,0.79833984375,-4.119873046875,-1.71661376953125,2.9449462890625,33.88620268620269,-73.76996336996336,93.71184371184371,0.2138671875,2.05126953125,0.0791015625,-1.007080078125,0.84686279296875,1.0833740234375,-56.826862026862024,27.588766788766787,46.18119658119658
14:50.224,-0.3310546875,0.73046875,1.87890625,-5.16510009765625,-14.71710205078125,-34.9578857421875,7.047130647130647,29.83785103785104,31.337240537240536,-1.60107421875,-0.78369140625,0.79833984375,-3.76129150390625,-0.4730224609375,3.5552978515625,35.23565323565323,-73.17020757020757,91.46275946275946,0.2138671875,2.05126953125,0.0791015625,-0.46539306640625,1.18255615234375,0.37384033203125,-57.12673992673992,27.13894993894994,46.33113553113553
14:51.052,-0.37109375,0.45361328125,1.83984375,-36.8804931640625,-17.5933837890625,13.8702392578125,11.545299145299145,37.634676434676436,32.236874236874236,-1.57568359375,-0.75,0.8701171875,-3.76129150390625,-0.4730224609375,3.5552978515625,35.23565323565323,-73.17020757020757,91.46275946275946,0.2265625,2.05712890625,0.07275390625,-0.46539306640625,1.18255615234375,0.37384033203125,-57.12673992673992,27.13894993894994,46.33113553113553
14:51.832,-0.10791015625,0.52880859375,2.064453125,-2.7923583984375,-3.04412841796875,53.1768798828125,-4.798046398046398,31.787057387057384,21.29133089133089,-1.625,-0.78466796875,0.80029296875,-0.86212158203125,3.77655029296875,-0.48828125,33.88620268620269,-74.81953601953602,93.41196581196581,0.21142578125,2.05859375,0.07470703125,-1.60980224609375,-0.3814697265625,2.7008056640625,-58.026373626373626,26.83907203907204,47.230769230769226
14:52.612,-0.18505859375,0.6875,1.92724609375,3.3111572265625,-30.40313720703125,-47.1954345703125,7.347008547008547,29.537973137973136,35.985347985347985,-1.70068359375,-0.8212890625,0.5673828125,-20.42388916015625,0.90789794921875,4.29534912109375,33.43638583638584,-73.62002442002442,90.71306471306471,0.2060546875,2.05126953125,0.07470703125,-0.9918212890625,1.190185546875,1.30462646484375,-57.27667887667887,26.539194139194137,47.230769230769226
14:53.392,-0.18505859375,0.6875,1.92724609375,0.66375732421875,10.0860595703125,-8.07952880859375,13.344566544566543,31.936996336996337,39.13406593406593,-1.56640625,-0.7626953125,0.8642578125,1.007080078125,0.885009765625,-1.51824951171875,34.485958485958484,-73.62002442002442,90.71306471306471,0.2294921875,2.05322265625,0.07763671875,-0.8392333984375,1.27410888671875,0.48065185546875,-57.57655677655677,26.539194139194137,47.230769230769226
14:54.270,0.04248046875,0.169921875,1.8798828125,0.66375732421875,10.0860595703125,-8.07952880859375,13.344566544566543,31.936996336996337,39.13406593406593,-1.56640625,-0.7626953125,0.8642578125,1.129150390625,-1.48773193359375,-1.74713134765625,32.98656898656898,-73.17020757020757,93.86178266178266,0.2294921875,2.05322265625,0.07763671875,-1.15966796875,-0.78582763671875,2.5787353515625,-58.026373626373626,26.83907203907204,46.93089133089133
14:55.050,0.03564453125,1.00927734375,1.9228515625,-10.3759765625,1.9683837890625,54.26788330078125,4.648107448107448,28.93821733821734,35.53553113553114,-1.638671875,-0.78369140625,0.74072265625,1.129150390625,-1.48773193359375,-1.74713134765625,32.98656898656898,-73.17020757020757,93.86178266178266,0.23046875,2.05810546875,0.0791015625,-1.15966796875,-0.78582763671875,2.5787353515625,-58.026373626373626,26.83907203907204,46.93089133089133
14:55.830,-0.27392578125,0.76708984375,2.0068359375,-4.0283203125,-16.3726806640625,-38.06304931640625,9.296214896214895,30.437606837606836,35.835409035409036,-1.6357421875,-0.74609375,0.79541015625,-4.3487548828125,1.31988525390625,3.3721923828125,34.635897435897434,-73.02026862026862,89.21367521367522,0.220703125,2.052734375,0.0732421875,-1.09100341796875,0.9002685546875,1.312255859375,-58.476190476190474,27.13894993894994,47.380708180708176
14:56.610,0.13818359375,0.31787109375,2.07568359375,35.4156494140625,12.3291015625,-25.27618408203125,7.347008547008547,33.73626373626374,28.93821733821734,-1.52978515625,-0.77587890625,0.8623046875,1.251220703125,-7.53021240234375,-5.6610107421875,34.485958485958484,-72.12063492063491,89.36361416361416,0.21728515625,2.0537109375,0.06982421875,-0.70953369140625,1.97601318359375,2.0294189453125,-57.12673992673992,26.689133089133087,47.68058608058608
14:57.439,0.13818359375,0.31787109375,2.07568359375,8.72039794921875,-131.1492919921875,8.15582275390625,7.047130647130647,29.088156288156288,36.435164835164834,-1.59716796875,-0.798828125,0.77587890625,-3.265380859375,1.35040283203125,-0.09918212890625,33.88620268620269,-74.51965811965812,94.76141636141635,0.20849609375,2.064453125,0.072265625,-0.77056884765625,-0.02288818359375,2.50244140625,-57.57655677655677,26.539194139194137,46.48107448107448
14:58.267,0.55712890625,0.62451171875,1.7265625,8.72039794921875,-131.1492919921875,8.15582275390625,7.047130647130647,29.088156288156288,36.435164835164834,-1.59716796875,-0.798828125,0.77587890625,-4.119873046875,-3.2806396484375,4.119873046875,35.08571428571428,-73.02026862026862,93.11208791208792,0.20849609375,2.064453125,0.072265625,-0.61798095703125,1.1138916015625,0.7171630859375,-57.12673992673992,26.689133089133087,47.08083028083028
14:59.047,1.51708984375,0.74853515625,1.18603515625,-13.48876953125,-13.95416259765625,34.78240966796875,2.399023199023199,12.744810744810744,51.429059829059824,-1.59912109375,-0.7958984375,0.7646484375,-4.119873046875,-3.2806396484375,4.119873046875,35.08571428571428,-73.02026862026862,93.11208791208792,0.203125,2.05419921875,0.0791015625,-0.61798095703125,1.1138916015625,0.7171630859375,-57.12673992673992,26.689133089133087,47.08083028083028
14:59.828,1.37646484375,0.75146484375,1.3759765625,2.43377685546875,18.5546875,-41.1376953125,2.548962148962149,-0.29987789987789987,43.78217338217338,-1.59228515625,-0.77197265625,0.80517578125,0.9765625,-0.5950927734375,-2.61688232421875,34.186080586080585,-72.12063492063491,92.2124542124542,0.2041015625,2.05078125,0.07861328125,-0.72479248046875,0.396728515625,1.9378662109375,-56.676923076923075,25.18974358974359,47.68058608058608
15:00.608,1.0029296875,0.7822265625,1.7578125,6.53839111328125,12.4664306640625,9.33074951171875,-1.6493284493284492,2.548962148962149,40.63345543345543,-1.61376953125,-0.796875,0.72265625,-3.7841796875,4.17327880859375,1.16729736328125,32.686691086691084,-73.62002442002442,93.26202686202686,0.17724609375,2.0595703125,0.0546875,-0.98419189453125,1.40380859375,1.97601318359375,-57.12673992673992,26.689133089133087,47.08083028083028
15:01.387,1.0029296875,0.7822265625,1.7578125,6.53839111328125,12.4664306640625,9.33074951171875,10.795604395604395,12.444932844932845,56.526984126984125,-1.6201171875,-0.78564453125,0.80322265625,-5.25665283203125,-1.39617919921875,3.7841796875,35.985347985347985,-73.91990231990232,89.66349206349206,0.19482421875,2.05078125,0.06640625,-0.99945068359375,0.6561279296875,0.83160400390625,-57.42661782661782,26.389255189255188,47.380708180708176
15:02.168,0.6728515625,0.466796875,1.9619140625,-9.94110107421875,41.6412353515625,17.92144775390625,10.795604395604395,12.444932844932845,56.526984126984125,-1.6201171875,-0.78564453125,0.80322265625,0.8544921875,1.85394287109375,1.4801025390625,33.88620268620269,-72.72039072039071,93.11208791208792,0.19482421875,2.05078125,0.06640625,-1.13677978515625,0.762939453125,2.78472900390625,-58.026373626373626,26.83907203907204,47.230769230769226
15:02.996,0.373046875,0.59228515625,1.94921875,25.054931640625,13.02337646484375,11.07025146484375,3.1487179487179486,18.742368742368743,41.533089133089135,-1.59716796875,-0.79150390625,0.80419921875,0.8544921875,1.85394287109375,1.4801025390625,33.88620268620269,-72.72039072039071,93.11208791208792,0.19873046875,2.06005859375,0.07763671875,-1.13677978515625,0.762939453125,2.78472900390625,-58.026373626373626,26.83907203907204,47.230769230769226
15:03.776,-0.03564453125,0.67919921875,1.98193359375,-17.67730712890625,-8.1787109375,-27.0538330078125,2.0991452991452992,21.59120879120879,42.88253968253968,-1.60546875,-0.77587890625,0.78173828125,-2.8076171875,-1.38092041015625,0.92315673828125,33.58632478632479,-71.52087912087912,92.66227106227106,0.19580078125,2.05078125,0.07861328125,-0.72479248046875,1.02996826171875,1.89208984375,-58.92600732600732,25.93943833943834,47.380708180708176
15:04.556,0.32958984375,0.26953125,2.14111328125,-11.48223876953125,-28.14483642578125,-1.2664794921875,9.446153846153846,28.788278388278385,40.48351648351648,-1.5908203125,-0.7763671875,0.78125,0.08392333984375,1.07574462890625,0.45013427734375,33.28644688644688,-73.47008547008546,91.6126984126984,0.21923828125,2.0546875,0.0634765625,-1.068115234375,1.50299072265625,0.9765625,-57.72649572649573,27.438827838827837,46.33113553113553
15:05.336,0.32958984375,0.26953125,2.14111328125,-11.48223876953125,-28.14483642578125,-1.2664794921875,4.648107448107448,23.99023199023199,37.634676434676436,-1.6103515625,-0.77978515625,0.7646484375,-1.96075439453125,1.52587890625,0.90789794921875,33.43638583638584,-72.42051282051281,91.46275946275946,0.17431640625,2.05419921875,0.0498046875,-1.28936767578125,-0.91552734375,2.8533935546875,-58.026373626373626,27.288888888888888,47.98046398046398
15:06.116,0.30859375,0.77001953125,1.90869140625,9.6282958984375,5.37872314453125,27.94647216796875,4.648107448107448,23.99023199023199,37.634676434676436,-1.6103515625,-0.77978515625,0.7646484375,-1.96075439453125,1.52587890625,0.90789794921875,33.43638583638584,-73.62002442002442,92.5123321123321,0.17431640625,2.05419921875,0.0498046875,-1.28936767578125,-0.91552734375,2.8533935546875,-59.22588522588522,27.13894993894994,46.63101343101343
15:06.896,0.1669921875,0.8623046875,2.0791015625,-22.69744873046875,-4.46319580078125,-17.66204833984375,9.146275946275946,24.44004884004884,42.13284493284493,-1.61083984375,-0.748046875,0.796875,-4.4097900390625,0.6866455078125,4.0130615234375,33.43638583638584,-73.62002442002442,92.5123321123321,0.20263671875,2.0537109375,0.0810546875,-1.220703125,0.762939453125,1.74713134765625,-59.22588522588522,27.13894993894994,46.63101343101343
15:07.725,0.1455078125,0.515625,2.19482421875,-20.11871337890625,-7.31658935546875,-6.77490234375,4.048351648351648,25.33968253968254,38.68424908424908,-1.60400390625,-0.7841796875,0.78271484375,-1.5411376953125,0.26702880859375,-0.4730224609375,33.88620268620269,-73.47008547008546,91.31282051282051,0.19775390625,2.0615234375,0.06591796875,-0.152587890625,1.77001953125,0.5340576171875,-58.026373626373626,24.739926739926737,46.93089133089133
15:08.505,0.1455078125,0.515625,2.19482421875,13.7481689453125,8.880615234375,30.8837890625,-5.247863247863248,24.739926739926737,33.13650793650793,-1.60595703125,-0.798828125,0.73779296875,-2.13623046875,1.77764892578125,0.0762939453125,34.336019536019535,-73.47008547008546,92.66227106227106,0.208984375,2.0439453125,0.07470703125,-1.48773193359375,-1.01470947265625,2.32696533203125,-58.026373626373626,26.83907203907204,46.93089133089133
15:09.285,0.109375,0.63037109375,2.04296875,13.7481689453125,8.880615234375,30.8837890625,0.5997557997557997,28.03858363858364,33.73626373626374,-1.5947265625,-0.78076171875,0.771484375,-6.17218017578125,0.1373291015625,2.32696533203125,33.73626373626374,-74.36971916971916,91.46275946275946,0.20361328125,2.05078125,0.0673828125,-0.762939453125,1.6326904296875,0.75531005859375,-58.176312576312576,26.689133089133087,47.380708180708176
15:10.114,-0.1337890625,0.68408203125,1.978515625,-1.5869140625,7.95745849609375,-28.08380126953125,0.5997557997557997,28.03858363858364,33.73626373626374,-1.5947265625,-0.78076171875,0.771484375,-6.17218017578125,0.1373291015625,2.32696533203125,32.686691086691084,-72.87032967032967,90.71306471306471,0.20361328125,2.05078125,0.0673828125,-0.762939453125,1.6326904296875,0.75531005859375,-58.026373626373626,26.23931623931624,49.329914529914525
15:10.894,0.2001953125,-0.04296875,2.068359375,-9.22393798828125,3.82232666015625,0.1068115234375,5.547741147741148,30.887423687423688,30.887423687423688,-1.58740234375,-0.7626953125,0.8115234375,-0.3204345703125,-0.0762939453125,0.54931640625,32.686691086691084,-72.87032967032967,90.71306471306471,0.22119140625,2.05419921875,0.06787109375,-0.3662109375,2.02178955078125,0.7171630859375,-58.026373626373626,26.23931623931624,49.329914529914525
15:11.674,0.076171875,0.751953125,1.9990234375,8.1787109375,-16.48712158203125,52.19268798828125,8.396581196581197,25.18974358974359,43.18241758241758,-1.603515625,-0.77392578125,0.77880859375,0.32806396484375,-2.25067138671875,1.10626220703125,33.88620268620269,-74.81953601953602,93.11208791208792,0.19677734375,2.05517578125,0.06591796875,-1.6326904296875,-0.42724609375,2.8533935546875,-57.27667887667887,28.03858363858364,47.53064713064713
15:12.503,0.076171875,0.751953125,1.9990234375,-4.1961669921875,-2.79998779296875,-32.04345703125,2.249084249084249,30.737484737484735,31.487179487179485,-1.611328125,-0.77294921875,0.810546875,-4.67681884765625,1.3580322265625,1.86920166015625,34.635897435897434,-74.51965811965812,91.31282051282051,0.193359375,2.05859375,0.072265625,-1.18255615234375,0.87738037109375,2.05230712890625,-57.27667887667887,26.23931623931624,47.53064713064713
15:13.283,-0.0693359375,0.67041015625,2.060546875,-4.1961669921875,-2.79998779296875,-32.04345703125,7.047130647130647,29.537973137973136,34.336019536019535,-1.62158203125,-0.72119140625,0.74609375,0.0457763671875,0.3204345703125,-2.81524658203125,33.58632478632479,-73.76996336996336,93.11208791208792,0.21923828125,2.05029296875,0.0849609375,-0.28228759765625,2.05230712890625,1.39617919921875,-57.27667887667887,26.83907203907204,47.53064713064713
15:14.111,0.10302734375,0.1220703125,2.09130859375,13.458251953125,-6.34002685546875,-30.25054931640625,7.047130647130647,29.537973137973136,34.336019536019535,-1.62158203125,-0.72119140625,0.74609375,0.0457763671875,0.3204345703125,-2.81524658203125,33.73626373626374,-73.62002442002442,92.81221001221,0.21923828125,2.05029296875,0.0849609375,-0.28228759765625,2.05230712890625,1.39617919921875,-58.026373626373626,26.83907203907204,48.58021978021978
15:14.940,0.0107421875,0.7763671875,1.9599609375,-9.86480712890625,17.547607421875,39.0167236328125,7.646886446886446,28.788278388278385,41.832967032967034,-1.65185546875,-0.74462890625,0.80078125,-2.26593017578125,-1.556396484375,1.42669677734375,33.73626373626374,-73.62002442002442,92.81221001221,0.1923828125,2.05810546875,0.07568359375,-0.9765625,0.22125244140625,2.44140625,-58.026373626373626,26.83907203907204,48.58021978021978
15:15.720,-0.130859375,0.45068359375,2.02099609375,-14.83917236328125,8.6669921875,-16.27349853515625,9.596092796092796,31.037362637362637,38.98412698412698,-1.61572265625,-0.73046875,0.80029296875,-7.049560546875,0.701904296875,2.0294189453125,33.28644688644688,-74.06984126984126,91.01294261294261,0.19677734375,2.0576171875,0.0673828125,-0.78582763671875,0.3509521484375,1.5411376953125,-57.12673992673992,27.13894993894994,46.33113553113553
15:16.500,-0.130859375,0.45068359375,2.02099609375,28.9459228515625,8.8653564453125,-21.209716796875,7.347008547008547,29.83785103785104,35.08571428571428,-1.63037109375,-0.75830078125,0.8408203125,-1.71661376953125,1.5411376953125,-0.60272216796875,32.98656898656898,-72.42051282051281,93.26202686202686,0.19873046875,2.0576171875,0.064453125,-0.90789794921875,-0.38909912109375,2.17437744140625,-57.57655677655677,25.03980463980464,47.53064713064713
15:17.329,0.00537109375,0.240234375,2.1708984375,28.9459228515625,8.8653564453125,-21.209716796875,7.197069597069596,28.188522588522588,39.28400488400488,-1.64013671875,-0.73583984375,0.8037109375,-4.547119140625,1.0528564453125,2.29644775390625,34.336019536019535,-71.97069597069597,91.31282051282051,0.197265625,2.0556640625,0.07470703125,-1.12152099609375,0.05340576171875,2.227783203125,-58.326251526251525,25.489621489621488,45.88131868131868
15:18.109,-0.06005859375,0.798828125,1.9580078125,-6.805419921875,8.33892822265625,12.87841796875,7.197069597069596,28.188522588522588,39.28400488400488,-1.64013671875,-0.73583984375,0.8037109375,-4.547119140625,1.0528564453125,2.29644775390625,33.43638583638584,-71.82075702075701,93.26202686202686,0.197265625,2.0556640625,0.07470703125,-1.12152099609375,0.05340576171875,2.227783203125,-59.37582417582417,25.78949938949939,47.230769230769226
15:18.889,-0.1025390625,0.333984375,2.15380859375,-29.80804443359375,-11.23046875,13.427734375,15.143833943833943,29.088156288156288,41.533089133089135,-1.6396484375,-0.720703125,0.8037109375,-6.55364990234375,1.88446044921875,3.12042236328125,33.43638583638584,-71.82075702075701,93.26202686202686,0.18505859375,2.056640625,0.068359375,-1.2969970703125,0.98419189453125,1.04522705078125,-59.37582417582417,25.78949938949939,47.230769230769226
15:19.766,-0.01953125,0.3662109375,2.08203125,9.1705322265625,2.79998779296875,28.25164794921875,6.747252747252747,26.08937728937729,38.98412698412698,-1.6484375,-0.72216796875,0.802734375,-0.701904296875,-1.94549560546875,-0.48828125,31.487179487179485,-73.02026862026862,92.66227106227106,0.1904296875,2.0546875,0.0654296875,-1.2969970703125,0.457763671875,1.91497802734375,-57.57655677655677,26.83907203907204,48.58021978021978
15:20.546,-0.21826171875,0.76708984375,1.8359375,3.91387939453125,14.68658447265625,-21.3470458984375,6.597313797313797,28.488400488400487,35.985347985347985,-1.61767578125,-0.71533203125,0.77978515625,-4.241943359375,-3.387451171875,2.5482177734375,31.936996336996337,-73.62002442002442,91.76263736263736,0.1923828125,2.0478515625,0.07080078125,-0.9307861328125,0.8544921875,1.41143798828125,-58.326251526251525,26.83907203907204,49.329914529914525
15:21.327,-0.21826171875,0.76708984375,1.8359375,3.91387939453125,14.68658447265625,-21.3470458984375,10.795604395604395,30.137728937728937,35.985347985347985,-1.60791015625,-0.7333984375,0.78466796875,-4.4403076171875,1.65557861328125,2.838134765625,33.28644688644688,-72.27057387057387,92.06251526251526,0.20068359375,2.06005859375,0.05615234375,-0.96893310546875,1.45721435546875,0.35858154296875,-58.77606837606837,25.78949938949939,47.53064713064713
15:22.155,0.08447265625,0.0224609375,2.05322265625,-13.43536376953125,-16.83807373046875,31.92138671875,10.795604395604395,30.137728937728937,35.985347985347985,-1.60986328125,-0.71484375,0.8154296875,1.708984375,-1.373291015625,-1.31988525390625,33.58632478632479,-73.02026862026862,94.16166056166055,0.18994140625,2.05224609375,0.06201171875,-1.03759765625,0.1220703125,2.2125244140625,-59.67570207570208,28.188522588522588,47.08083028083028
15:23.130,0.13623046875,0.3193359375,2.1025390625,7.92694091796875,-15.31982421875,-2.4261474609375,12.744810744810744,25.33968253968254,38.234432234432234,-1.60986328125,-0.71484375,0.8154296875,1.708984375,-1.373291015625,-1.31988525390625,34.336019536019535,-72.72039072039071,93.71184371184371,0.18994140625,2.05224609375,0.06201171875,-0.66375732421875,1.19781494140625,1.48773193359375,-58.326251526251525,27.288888888888888,47.230769230769226
15:23.959,-0.19775390625,0.74560546875,1.95703125,1.68609619140625,2.73895263671875,-7.14111328125,10.045909645909646,27.88864468864469,39.28400488400488,-1.62939453125,-0.74072265625,0.771484375,-4.85992431640625,0.55694580078125,1.85394287109375,34.336019536019535,-72.72039072039071,93.71184371184371,0.2021484375,2.0595703125,0.07373046875,-0.66375732421875,1.19781494140625,1.48773193359375,-58.326251526251525,27.288888888888888,47.230769230769226
15:24.739,0.01318359375,0.2646484375,2.1669921875,-19.64569091796875,5.60760498046875,7.17926025390625,10.495726495726496,28.788278388278385,30.287667887667887,-1.623046875,-0.7138671875,0.8193359375,-3.94439697265625,2.105712890625,2.14385986328125,33.28644688644688,-73.76996336996336,89.96336996336996,0.19677734375,2.05078125,0.06640625,-0.93841552734375,1.74713134765625,0.48828125,-59.22588522588522,27.738705738705736,46.63101343101343
15:25.519,0.0029296875,0.28759765625,2.10791015625,11.749267578125,6.09588623046875,2.777099609375,7.197069597069596,27.13894993894994,37.18485958485958,-1.607421875,-0.70703125,0.8115234375,2.70843505859375,-1.953125,-0.579833984375,31.936996336996337,-71.37094017094017,92.5123321123321,0.20947265625,2.056640625,0.06884765625,-0.823974609375,0.34332275390625,1.93023681640625,-59.22588522588522,25.93943833943834,46.63101343101343
15:26.299,0.0029296875,0.28759765625,2.10791015625,11.749267578125,6.09588623046875,2.777099609375,7.197069597069596,27.13894993894994,37.18485958485958,-1.63916015625,-0.74853515625,0.83837890625,-2.0294189453125,-1.96075439453125,1.41143798828125,33.73626373626374,-72.42051282051281,90.41318681318681,0.193359375,2.0615234375,0.06689453125,-0.98419189453125,1.0528564453125,1.9378662109375,-57.27667887667887,27.588766788766787,46.93089133089133
15:27.176,-0.0283203125,0.70556640625,2.03076171875,0.58746337890625,9.307861328125,-5.60760498046875,10.195848595848595,27.738705738705736,32.236874236874236,-1.63916015625,-0.74853515625,0.83837890625,-2.0294189453125,-1.96075439453125,1.41143798828125,32.98656898656898,-72.87032967032967,91.46275946275946,0.193359375,2.0615234375,0.06689453125,-0.98419189453125,1.0528564453125,1.9378662109375,-56.377045177045176,28.93821733821734,47.380708180708176
15:28.005,0.16162109375,0.1435546875,2.13427734375,-10.74981689453125,-18.59283447265625,15.19012451171875,10.195848595848595,31.936996336996337,36.435164835164834,-1.61865234375,-0.7421875,0.81689453125,-3.33404541015625,2.61688232421875,0.8087158203125,32.98656898656898,-72.87032967032967,91.46275946275946,0.20703125,2.04931640625,0.0712890625,-0.93841552734375,1.48773193359375,0.274658203125,-56.377045177045176,28.93821733821734,47.380708180708176
15:28.834,0.02099609375,0.1396484375,1.939453125,17.17376708984375,2.72369384765625,15.25115966796875,9.446153846153846,25.639560439560437,34.036141636141636,-1.6298828125,-0.7490234375,0.76318359375,-3.76129150390625,3.0059814453125,-0.51116943359375,35.23565323565323,-72.12063492063491,89.66349206349206,0.212890625,2.046875,0.0615234375,-0.87738037109375,1.739501953125,2.15911865234375,-56.526984126984125,28.338461538461537,45.88131868131868
15:29.614,0.16015625,0.705078125,1.93701171875,-0.40435791015625,6.011962890625,-22.1405029296875,6.597313797313797,26.689133089133087,36.73504273504273,-1.642578125,-0.728515625,0.7890625,-6.95037841796875,0.77056884765625,3.9520263671875,33.73626373626374,-71.37094017094017,91.46275946275946,0.18017578125,2.0546875,0.0673828125,-1.12152099609375,0.5950927734375,1.77001953125,-58.326251526251525,26.23931623931624,46.18119658119658
15:30.443,0.16015625,0.705078125,1.93701171875,-13.6566162109375,-13.00811767578125,11.03973388671875,12.444932844932845,28.188522588522588,37.934554334554335,-1.64599609375,-0.6953125,0.81005859375,-5.828857421875,3.07464599609375,2.0294189453125,34.78583638583638,-73.91990231990232,91.16288156288157,0.1943359375,2.056640625,0.07080078125,-0.701904296875,1.71661376953125,-0.16021728515625,-57.42661782661782,28.488400488400487,48.43028083028083
15:31.271,0.17724609375,0.0556640625,2.00244140625,-13.6566162109375,-13.00811767578125,11.03973388671875,12.444932844932845,28.188522588522588,37.934554334554335,-1.64599609375,-0.6953125,0.81005859375,1.28173828125,-2.7923583984375,0.79345703125,31.787057387057384,-72.27057387057387,92.66227106227106,0.1943359375,2.056640625,0.07080078125,-1.07574462890625,1.4801025390625,2.410888671875,-57.42661782661782,25.93943833943834,47.68058608058608
15:32.100,0.048828125,0.359375,2.07373046875,5.79071044921875,-6.65283203125,20.34759521484375,7.496947496947497,27.588766788766787,40.033699633699634,-1.640625,-0.73486328125,0.78564453125,1.28173828125,-2.7923583984375,0.79345703125,35.08571428571428,-71.22100122100122,90.26324786324786,0.1962890625,2.060546875,0.0615234375,-1.07574462890625,1.4801025390625,2.410888671875,-57.72649572649573,26.389255189255188,48.43028083028083
15:32.880,0.40234375,0.630859375,1.89306640625,-9.04083251953125,-6.89697265625,-6.7596435546875,7.347008547008547,27.288888888888888,37.03492063492063,-1.66552734375,-0.72509765625,0.79296875,-4.21142578125,-1.60980224609375,2.50244140625,35.08571428571428,-71.22100122100122,90.26324786324786,0.2021484375,2.05908203125,0.06494140625,-0.57220458984375,1.007080078125,1.83868408203125,-57.72649572649573,26.389255189255188,48.43028083028083
15:33.660,0.1572265625,0.18603515625,2.21533203125,-9.857177734375,-6.16455078125,-10.71929931640625,15.443711843711844,26.98901098901099,43.18241758241758,-1.607421875,-0.7041015625,0.845703125,-6.95037841796875,4.50897216796875,3.60870361328125,34.186080586080585,-72.12063492063491,90.41318681318681,0.19189453125,2.05712890625,0.07470703125,-0.9765625,0.86212158203125,0.823974609375,-59.07594627594627,26.23931623931624,45.88131868131868
15:34.489,0.1572265625,0.18603515625,2.21533203125,13.74053955078125,-9.63592529296875,3.4332275390625,8.846398046398047,25.03980463980464,41.38315018315018,-1.64404296875,-0.67578125,0.810546875,-3.1890869140625,1.28936767578125,4.75311279296875,32.386813186813185,-72.87032967032967,91.46275946275946,0.1875,2.060546875,0.07958984375,-1.31988525390625,0.18310546875,1.59454345703125,-58.92600732600732,27.13894993894994,46.63101343101343
15:35.269,0.09130859375,0.1005859375,2.05126953125,13.74053955078125,-9.63592529296875,3.4332275390625,8.846398046398047,25.03980463980464,41.38315018315018,-1.7060546875,-0.6806640625,0.734375,-0.67901611328125,0.93841552734375,2.5482177734375,30.287667887667887,-74.51965811965812,91.01294261294261,0.16064453125,2.0595703125,0.08349609375,-1.40380859375,1.97601318359375,0.69427490234375,-59.37582417582417,26.23931623931624,47.98046398046398
15:36.098,0.509765625,0.716796875,2.0966796875,-1.97601318359375,-13.52691650390625,26.2603759765625,10.495726495726496,26.23931623931624,41.832967032967034,-1.7060546875,-0.6806640625,0.734375,-0.67901611328125,0.93841552734375,2.5482177734375,30.887423687423688,-68.82197802197803,90.11330891330891,0.16064453125,2.0595703125,0.08349609375,-1.40380859375,1.97601318359375,0.69427490234375,-57.12673992673992,27.738705738705736,47.380708180708176
15:36.878,0.228515625,0.18212890625,2.07080078125,-5.9661865234375,13.80157470703125,-28.9154052734375,12.294993894993894,24.44004884004884,47.380708180708176,-1.68115234375,-0.66357421875,0.7021484375,-8.53729248046875,-3.22723388671875,2.22015380859375,30.887423687423688,-68.82197802197803,90.11330891330891,0.14501953125,2.0546875,0.068359375,-0.0762939453125,2.32696533203125,-0.23651123046875,-57.12673992673992,27.738705738705736,47.380708180708176
15:37.658,0.26904296875,-0.0556640625,1.8515625,22.66693115234375,3.07464599609375,16.15142822265625,9.296214896214895,25.33968253968254,43.03247863247863,-1.69384765625,-0.654296875,0.7265625,-1.35040283203125,1.01470947265625,-2.46429443359375,31.787057387057384,-71.22100122100122,90.56312576312575,0.14404296875,2.0537109375,0.0810546875,-0.9918212890625,-0.89263916015625,5.37872314453125,-57.42661782661782,26.689133089133087,46.03125763125763
15:38.438,0.26904296875,-0.0556640625,1.8515625,-10.81085205078125,-10.5133056640625,29.510498046875,7.047130647130647,25.18974358974359,42.88253968253968,-1.6904296875,-0.57861328125,0.72509765625,-0.99945068359375,2.09808349609375,-2.166748046875,33.88620268620269,-70.77118437118438,90.56312576312575,0.25830078125,2.052734375,0.064453125,-1.1444091796875,1.251220703125,1.73187255859375,-57.57655677655677,27.288888888888888,47.53064713064713
15:39.218,0.2080078125,0.517578125,2.009765625,-10.81085205078125,-10.5133056640625,29.510498046875,7.047130647130647,25.18974358974359,42.88253968253968,-1.6904296875,-0.57861328125,0.72509765625,-2.54058837890625,-9.31549072265625,0.20599365234375,32.836630036630034,-70.77118437118438,88.16410256410256,0.25830078125,2.052734375,0.064453125,-0.52642822265625,3.8909912109375,-0.2899169921875,-59.37582417582417,25.489621489621488,46.93089133089133
15:39.998,0.369140625,0.58056640625,1.9560546875,14.36614990234375,-66.131591796875,-33.111572265625,11.245421245421245,25.18974358974359,43.63223443223443,-1.67333984375,-0.71533203125,0.79296875,-2.54058837890625,-9.31549072265625,0.20599365234375,32.836630036630034,-70.77118437118438,88.16410256410256,0.3046875,2.044921875,0.05712890625,-0.52642822265625,3.8909912109375,-0.2899169921875,-59.37582417582417,25.489621489621488,46.93089133089133
15:40.826,0.1943359375,-0.35400390625,2.0068359375,4.638671875,-14.65606689453125,-6.40106201171875,12.294993894993894,23.39047619047619,45.58144078144078,-1.62939453125,-0.6953125,0.8271484375,-0.6866455078125,-3.204345703125,1.73187255859375,32.386813186813185,-72.12063492063491,91.16288156288157,0.263671875,2.052734375,0.076171875,-0.03814697265625,-2.9296875,2.23541259765625,-58.026373626373626,25.78949938949939,48.28034188034188
15:41.656,0.16259765625,0.39794921875,2.01025390625,2.43377685546875,7.7972412109375,27.45819091796875,15.293772893772893,23.54041514041514,48.43028083028083,-1.5830078125,-0.73974609375,0.8818359375,-0.20599365234375,0.1373291015625,0.52642822265625,33.73626373626374,-72.87032967032967,91.46275946275946,0.24072265625,2.052734375,0.06396484375,-1.4801025390625,0.00762939453125,3.10516357421875,-57.57655677655677,27.288888888888888,47.230769230769226
15:42.435,0.16259765625,0.39794921875,2.01025390625,5.13458251953125,-29.571533203125,-10.467529296875,11.095482295482295,23.54041514041514,46.48107448107448,-1.580078125,-0.75146484375,0.87255859375,-5.68389892578125,-2.5482177734375,4.89044189453125,32.536752136752135,-73.76996336996336,93.41196581196581,0.23779296875,2.05859375,0.06298828125,-1.09100341796875,1.30462646484375,1.51824951171875,-58.476190476190474,25.93943833943834,47.380708180708176
15:43.264,-0.00146484375,0.8134765625,2.0146484375,5.13458251953125,-29.571533203125,-10.467529296875,11.095482295482295,23.54041514041514,46.48107448107448,-1.69970703125,-0.650390625,0.7353515625,-3.1890869140625,0.16021728515625,3.84521484375,33.58632478632479,-75.26935286935287,92.66227106227106,0.2373046875,2.0537109375,0.0712890625,-0.99945068359375,-0.05340576171875,0.86212158203125,-58.326251526251525,26.83907203907204,47.98046398046398
15:44.093,0.40625,0.01123046875,2.12255859375,-10.24627685546875,-2.92205810546875,10.07080078125,15.893528693528692,27.13894993894994,43.03247863247863,-1.69970703125,-0.650390625,0.7353515625,-3.1890869140625,0.16021728515625,3.84521484375,31.487179487179485,-71.52087912087912,88.16410256410256,0.2373046875,2.0537109375,0.0712890625,-0.99945068359375,-0.05340576171875,0.86212158203125,-59.67570207570208,25.18974358974359,46.03125763125763
15:44.873,0.587890625,0.19921875,2.25146484375,10.2081298828125,34.88922119140625,-1.15966796875,13.344566544566543,23.39047619047619,45.88131868131868,-1.66845703125,-0.70703125,0.72998046875,-3.0670166015625,3.84521484375,-1.31988525390625,31.487179487179485,-71.52087912087912,88.16410256410256,0.19775390625,2.05810546875,0.0830078125,-1.28173828125,-2.46429443359375,5.33294677734375,-59.67570207570208,25.18974358974359,46.03125763125763
15:45.653,0.13623046875,0.9306640625,2.06640625,-3.2501220703125,1.62506103515625,-8.56781005859375,13.044688644688645,21.59120879120879,49.329914529914525,-1.64892578125,-0.763671875,0.71484375,-6.87408447265625,-1.4495849609375,2.5634765625,33.58632478632479,-71.52087912087912,91.01294261294261,0.3193359375,2.05322265625,0.0654296875,-0.5950927734375,2.44140625,-0.84686279296875,-57.57655677655677,27.288888888888888,47.53064713064713
15:46.530,0.19970703125,0.25341796875,2.02587890625,-8.9263916015625,32.58514404296875,-26.98516845703125,13.794383394383393,26.08937728937729,44.08205128205128,-1.6328125,-0.81884765625,0.751953125,-6.317138671875,-0.54168701171875,0.4730224609375,35.53553113553114,-71.37094017094017,89.36361416361416,0.3701171875,2.04345703125,0.06689453125,-0.83160400390625,1.6632080078125,0.26702880859375,-57.12673992673992,23.39047619047619,47.68058608058608
15:47.408,0.19970703125,0.25341796875,2.02587890625,-8.9263916015625,32.58514404296875,-26.98516845703125,13.194627594627594,26.83907203907204,41.98290598290598,-1.6396484375,-0.76611328125,0.7197265625,1.27410888671875,-2.7008056640625,-2.13623046875,35.53553113553114,-73.62002442002442,90.71306471306471,0.349609375,2.0322265625,0.06494140625,-0.213623046875,-1.54876708984375,1.9683837890625,-57.57655677655677,22.94065934065934,49.030036630036626
15:48.188,0.1435546875,0.22607421875,1.8681640625,17.5933837890625,-5.584716796875,-7.10296630859375,13.194627594627594,26.83907203907204,41.98290598290598,-1.6396484375,-0.76611328125,0.7197265625,-3.814697265625,2.349853515625,2.79998779296875,34.485958485958484,-72.42051282051281,91.16288156288157,0.349609375,2.0322265625,0.06494140625,-1.47247314453125,0.823974609375,0.06866455078125,-59.67570207570208,24.14017094017094,47.380708180708176
15:48.968,0.11328125,0.77685546875,2.05126953125,-8.6212158203125,3.48663330078125,60.577392578125,7.047130647130647,26.689133089133087,42.13284493284493,-1.64599609375,-0.7978515625,0.7255859375,-3.814697265625,2.349853515625,2.79998779296875,34.485958485958484,-72.42051282051281,91.16288156288157,0.28564453125,2.05126953125,0.06201171875,-1.47247314453125,0.823974609375,0.06866455078125,-59.67570207570208,24.14017094017094,47.380708180708176
15:49.748,0.0009765625,0.49658203125,1.99267578125,3.173828125,36.4532470703125,-40.99273681640625,15.743589743589743,26.23931623931624,43.18241758241758,-1.6142578125,-0.71533203125,0.7314453125,-9.02557373046875,0.42724609375,4.15802001953125,35.08571428571428,-72.72039072039071,91.6126984126984,0.28369140625,2.046875,0.0693359375,-1.77001953125,1.7242431640625,1.19781494140625,-59.22588522588522,24.589987789987788,48.13040293040293
15:50.528,0.21044921875,-0.18505859375,2.0224609375,-5.91278076171875,-3.13568115234375,3.9825439453125,14.394139194139193,25.639560439560437,43.93211233211233,-1.64404296875,-0.71875,0.71923828125,-0.6866455078125,-1.5411376953125,1.27410888671875,33.28644688644688,-71.52087912087912,91.01294261294261,0.3056640625,2.04833984375,0.06982421875,-0.9918212890625,0.457763671875,2.52532958984375,-57.57655677655677,24.29010989010989,47.53064713064713
15:51.308,0.21044921875,-0.18505859375,2.0224609375,-5.91278076171875,-3.13568115234375,3.9825439453125,14.394139194139193,25.639560439560437,43.93211233211233,-1.65087890625,-0.72509765625,0.70458984375,1.6326904296875,0.457763671875,1.068115234375,34.186080586080585,-71.82075702075701,92.2124542124542,0.30712890625,2.052734375,0.06396484375,-1.0528564453125,1.373291015625,1.9073486328125,-59.07594627594627,23.99023199023199,47.98046398046398
15:52.088,0.287109375,0.3447265625,2.017578125,-12.5885009765625,-5.82122802734375,21.96502685546875,14.094261294261294,22.34090354090354,48.28034188034188,-1.65087890625,-0.72509765625,0.70458984375,1.6326904296875,0.457763671875,1.068115234375,34.78583638583638,-73.17020757020757,89.36361416361416,0.30712890625,2.052734375,0.06396484375,-1.0528564453125,1.373291015625,1.9073486328125,-58.026373626373626,25.489621489621488,47.53064713064713
15:52.868,0.15234375,0.47705078125,1.978515625,21.1334228515625,10.0860595703125,-48.31695556640625,11.245421245421245,24.14017094017094,43.18241758241758,-1.63427734375,-0.70947265625,0.78955078125,-5.13458251953125,-0.335693359375,0.6561279296875,34.78583638583638,-73.17020757020757,89.36361416361416,0.3134765625,2.0439453125,0.060546875,-0.640869140625,1.16729736328125,1.18255615234375,-58.026373626373626,25.489621489621488,47.53064713064713
15:53.648,0.1943359375,-0.2509765625,2.083984375,2.96783447265625,9.8876953125,-7.32421875,12.594871794871795,28.03858363858364,41.23321123321123,-1.62646484375,-0.7470703125,0.7919921875,-0.9918212890625,2.49481201171875,-1.25885009765625,34.336019536019535,-71.22100122100122,91.01294261294261,0.33154296875,2.029296875,0.06689453125,-0.640869140625,0.46539306640625,2.4566650390625,-56.826862026862024,25.03980463980464,46.48107448107448
15:54.428,0.1943359375,-0.2509765625,2.083984375,-14.12200927734375,-6.79779052734375,39.48974609375,14.394139194139193,23.39047619047619,51.72893772893773,-1.56103515625,-0.78515625,0.80419921875,-2.90679931640625,-1.4801025390625,0.83160400390625,34.78583638583638,-73.62002442002442,91.16288156288157,0.32080078125,2.04150390625,0.0595703125,-1.24359130859375,0.58746337890625,1.51824951171875,-58.176312576312576,23.84029304029304,47.68058608058608
15:55.257,0.10009765625,0.6025390625,1.9736328125,-14.12200927734375,-6.79779052734375,39.48974609375,14.394139194139193,23.39047619047619,51.72893772893773,-1.60107421875,-0.73486328125,0.81787109375,-7.9345703125,-4.85992431640625,2.8839111328125,33.43638583638584,-73.62002442002442,94.61147741147741,0.3115234375,2.0361328125,0.0517578125,-0.67901611328125,2.00653076171875,0.1678466796875,-59.825641025641026,25.489621489621488,46.18119658119658
15:56.085,0.03466796875,0.59912109375,1.94775390625,11.90948486328125,44.7998046875,-66.33758544921875,14.544078144078144,26.389255189255188,42.43272283272283,-1.60107421875,-0.73486328125,0.81787109375,-7.9345703125,-4.85992431640625,2.8839111328125,33.58632478632479,-73.02026862026862,92.36239316239316,0.3115234375,2.0361328125,0.0517578125,-0.67901611328125,2.00653076171875,0.1678466796875,-58.92600732600732,24.589987789987788,48.13040293040293
15:56.865,0.275390625,-0.255859375,2.126953125,-11.7340087890625,5.33294677734375,-3.7994384765625,17.093040293040293,27.588766788766787,43.33235653235653,-1.609375,-0.728515625,0.8779296875,-3.875732421875,0.5035400390625,2.78472900390625,33.58632478632479,-73.02026862026862,92.36239316239316,0.33154296875,2.041015625,0.06982421875,-0.7781982421875,0.54931640625,0.9765625,-58.92600732600732,24.589987789987788,48.13040293040293
15:57.645,0.166015625,0.7265625,2.01513671875,-11.83319091796875,31.33392333984375,65.46783447265625,18.29255189255189,24.44004884004884,50.07960927960928,-1.57861328125,-0.7646484375,0.90380859375,-2.685546875,-1.9378662109375,2.4261474609375,32.686691086691084,-74.36971916971916,92.5123321123321,0.31494140625,2.03955078125,0.0625,-1.38092041015625,0.26702880859375,1.96075439453125,-59.22588522588522,25.18974358974359,47.08083028083028
15:58.474,0.166015625,0.7265625,2.01513671875,18.310546875,0.86212158203125,-35.16387939453125,21.59120879120879,22.49084249084249,46.18119658119658,-1.60888671875,-0.71484375,0.84326171875,-5.5084228515625,0.2288818359375,2.17437744140625,32.98656898656898,-74.66959706959706,92.5123321123321,0.3212890625,2.0498046875,0.048828125,-0.95367431640625,0.66375732421875,1.708984375,-58.026373626373626,25.03980463980464,47.230769230769226
15:59.303,0.080078125,0.33447265625,2.07421875,18.310546875,0.86212158203125,-35.16387939453125,21.59120879120879,22.49084249084249,46.18119658119658,-1.60888671875,-0.720703125,0.87548828125,-0.17547607421875,-0.02288818359375,-0.72479248046875,32.08693528693529,-75.26935286935287,92.66227106227106,0.32373046875,2.0400390625,0.0673828125,-1.03759765625,-0.19073486328125,2.58636474609375,-60.125518925518925,23.690354090354088,49.62979242979243
16:00.180,-0.03125,-0.12890625,2.04736328125,8.35418701171875,2.1820068359375,9.74273681640625,18.742368742368743,27.13894993894994,43.78217338217338,-1.60888671875,-0.720703125,0.87548828125,-5.22613525390625,1.80816650390625,0.6103515625,33.73626373626374,-74.66959706959706,92.2124542124542,0.32373046875,2.0400390625,0.0673828125,-1.556396484375,0.66375732421875,2.471923828125,-58.326251526251525,23.99023199023199,47.230769230769226
16:00.974,0.1435546875,0.65625,2.12158203125,-12.2833251953125,-10.38360595703125,27.87017822265625,17.39291819291819,26.08937728937729,47.83052503052503,-1.55126953125,-0.69921875,0.9765625,-5.22613525390625,1.80816650390625,0.6103515625,33.73626373626374,-74.66959706959706,92.2124542124542,0.3154296875,2.0439453125,0.06298828125,-1.556396484375,0.66375732421875,2.471923828125,-58.326251526251525,23.99023199023199,47.230769230769226
16:01.838,0.01513671875,0.29541015625,1.99609375,22.735595703125,11.3525390625,-27.83966064453125,14.544078144078144,27.88864468864469,38.98412698412698,-1.5498046875,-0.71142578125,0.88525390625,-5.01251220703125,0.25177001953125,1.4495849609375,33.58632478632479,-72.72039072039071,93.11208791208792,0.314453125,2.041015625,0.06201171875,-0.5950927734375,0.518798828125,1.5411376953125,-59.975579975579976,23.84029304029304,48.13040293040293
16:02.618,0.05029296875,0.23193359375,2.02880859375,12.53509521484375,22.369384765625,-28.9154052734375,11.545299145299145,24.44004884004884,44.53186813186813,-1.58935546875,-0.69775390625,0.87060546875,-1.5411376953125,-0.20599365234375,-2.31170654296875,33.43638583638584,-73.91990231990232,93.26202686202686,0.3125,2.04248046875,0.060546875,-0.8392333984375,0.5035400390625,1.96075439453125,-58.77606837606837,26.23931623931624,48.58021978021978
16:03.398,0.05029296875,0.23193359375,2.02880859375,12.53509521484375,22.369384765625,-28.9154052734375,14.843956043956043,28.188522588522588,39.28400488400488,-1.5673828125,-0.73388671875,0.89697265625,-4.49371337890625,2.26593017578125,2.76947021484375,32.686691086691084,-73.17020757020757,93.56190476190476,0.30615234375,2.041015625,0.0498046875,-1.1138916015625,0.93841552734375,1.89971923828125,-59.975579975579976,25.93943833943834,49.479853479853475
16:04.178,-0.13525390625,0.72998046875,1.9443359375,10.64300537109375,-11.71875,-35.56060791015625,14.843956043956043,28.188522588522588,39.28400488400488,-1.5673828125,-0.73388671875,0.89697265625,-1.5869140625,-1.94549560546875,2.11334228515625,33.28644688644688,-71.52087912087912,93.11208791208792,0.30615234375,2.041015625,0.0498046875,-0.75531005859375,1.47247314453125,1.2664794921875,-57.42661782661782,25.18974358974359,47.08083028083028
16:04.958,-0.11767578125,-0.017578125,2.02587890625,-18.463134765625,-12.84027099609375,8.84246826171875,16.64322344322344,28.93821733821734,41.683028083028084,-1.6201171875,-0.75830078125,0.85888671875,-1.5869140625,-1.94549560546875,2.11334228515625,33.28644688644688,-71.52087912087912,93.11208791208792,0.333984375,2.037109375,0.06396484375,-0.75531005859375,1.47247314453125,1.2664794921875,-57.42661782661782,25.18974358974359,47.08083028083028
16:05.738,0.04150390625,0.533203125,2.02783203125,-22.75848388671875,21.697998046875,12.847900390625,13.794383394383393,27.88864468864469,36.285225885225884,-1.568359375,-0.68994140625,0.88623046875,-2.410888671875,0.244140625,1.2054443359375,34.485958485958484,-73.62002442002442,92.2124542124542,0.330078125,2.03759765625,0.06494140625,-0.86212158203125,0.35858154296875,2.05230712890625,-59.07594627594627,25.489621489621488,47.98046398046398
16:06.567,-0.00244140625,0.33251953125,1.96337890625,-3.24249267578125,-2.14385986328125,-14.312744140625,12.294993894993894,26.98901098901099,40.78339438339438,-1.58154296875,-0.73974609375,0.8759765625,-4.64630126953125,-0.48828125,1.708984375,32.536752136752135,-74.81953601953602,94.46153846153845,0.326171875,2.0439453125,0.06640625,-0.8392333984375,0.885009765625,1.6632080078125,-58.77606837606837,25.03980463980464,49.030036630036626
16:07.396,-0.00244140625,0.33251953125,1.96337890625,-3.24249267578125,-2.14385986328125,-14.312744140625,16.49328449328449,25.93943833943834,33.28644688644688,-1.55810546875,-0.7392578125,0.85205078125,-1.41143798828125,-1.62506103515625,-2.75421142578125,32.98656898656898,-75.71916971916971,93.26202686202686,0.34228515625,2.03564453125,0.06884765625,-0.87738037109375,0.42724609375,2.5482177734375,-59.67570207570208,24.589987789987788,48.73015873015873
16:08.175,-0.1142578125,0.3447265625,1.951171875,15.045166015625,-1.5716552734375,-15.380859375,16.49328449328449,25.93943833943834,33.28644688644688,-1.55810546875,-0.7392578125,0.85205078125,-1.41143798828125,-1.62506103515625,-2.75421142578125,33.73626373626374,-75.41929181929181,92.81221001221,0.34228515625,2.03564453125,0.06884765625,-0.87738037109375,0.42724609375,2.5482177734375,-58.326251526251525,22.49084249084249,48.58021978021978
16:08.955,-0.0029296875,0.64013671875,1.9853515625,-0.25177001953125,1.1749267578125,13.86260986328125,7.796825396825397,29.687912087912085,35.53553113553114,-1.53466796875,-0.8232421875,0.91162109375,-4.52423095703125,2.0904541015625,0.6561279296875,33.73626373626374,-75.41929181929181,92.81221001221,0.3330078125,2.0458984375,0.06201171875,-1.07574462890625,0.4119873046875,2.46429443359375,-58.326251526251525,22.49084249084249,48.58021978021978
16:09.735,0.0185546875,0.052734375,2.1259765625,0.93841552734375,45.0439453125,2.655029296875,17.093040293040293,27.13894993894994,35.23565323565323,-1.61962890625,-0.6748046875,0.83935546875,-6.0882568359375,1.220703125,3.41033935546875,34.186080586080585,-75.11941391941392,92.81221001221,0.34130859375,2.04248046875,0.06591796875,-0.6256103515625,1.03759765625,0.7171630859375,-59.37582417582417,23.99023199023199,47.230769230769226
16:10.515,0.0185546875,0.052734375,2.1259765625,6.30950927734375,0.5645751953125,-11.61956787109375,13.044688644688645,26.98901098901099,42.58266178266178,-1.6025390625,-0.7236328125,0.82666015625,0.6103515625,2.75421142578125,-1.861572265625,32.98656898656898,-73.91990231990232,94.31159951159951,0.33251953125,2.04638671875,0.06494140625,-0.701904296875,-0.54168701171875,2.44140625,-58.176312576312576,23.84029304029304,46.63101343101343
16:11.295,-0.04931640625,0.15478515625,1.98291015625,6.30950927734375,0.5645751953125,-11.61956787109375,13.044688644688645,26.98901098901099,42.58266178266178,-1.61083984375,-0.79345703125,0.794921875,-5.0048828125,0.22125244140625,4.15802001953125,33.58632478632479,-71.22100122100122,92.06251526251526,0.322265625,2.04248046875,0.07373046875,-0.7781982421875,0.9002685546875,1.85394287109375,-60.125518925518925,23.690354090354088,48.58021978021978
16:12.075,-0.19970703125,0.61279296875,1.95263671875,5.08880615234375,-4.38690185546875,-13.8702392578125,11.695238095238095,26.08937728937729,41.98290598290598,-1.61083984375,-0.79345703125,0.794921875,-5.0048828125,0.22125244140625,4.15802001953125,33.58632478632479,-71.22100122100122,92.06251526251526,0.322265625,2.04248046875,0.07373046875,-0.7781982421875,0.9002685546875,1.85394287109375,-60.125518925518925,23.690354090354088,48.58021978021978
16:12.904,0.00341796875,0.0654296875,2.0361328125,-10.68115234375,-17.64678955078125,8.8653564453125,16.49328449328449,33.43638583638584,39.433943833943836,-1.6083984375,-0.7216796875,0.87255859375,-4.974365234375,2.93731689453125,4.76837158203125,33.58632478632479,-73.47008547008546,91.6126984126984,0.33544921875,2.04248046875,0.0693359375,-0.31280517578125,0.9613037109375,0.67138671875,-57.57655677655677,24.739926739926737,46.93089133089133
16:13.684,0.08349609375,0.5625,2.00390625,-5.2490234375,14.7705078125,50.36163330078125,10.495726495726496,25.18974358974359,43.18241758241758,-1.5966796875,-0.7099609375,0.81982421875,-1.3427734375,0.52642822265625,1.4495849609375,33.88620268620269,-73.76996336996336,92.06251526251526,0.3291015625,2.03564453125,0.0712890625,-1.4495849609375,0.640869140625,2.3040771484375,-58.476190476190474,24.589987789987788,48.13040293040293
16:14.464,0.08349609375,0.5625,2.00390625,-9.63592529296875,31.80694580078125,-28.55682373046875,12.594871794871795,27.738705738705736,41.533089133089135,-1.63134765625,-0.76025390625,0.83740234375,-5.76019287109375,-3.68499755859375,2.28118896484375,34.186080586080585,-71.82075702075701,92.5123321123321,0.306640625,2.04736328125,0.060546875,-0.63323974609375,1.4801025390625,1.312255859375,-58.77606837606837,24.29010989010989,47.98046398046398
16:15.293,-0.0634765625,0.66259765625,1.92822265625,-9.63592529296875,31.80694580078125,-28.55682373046875,12.594871794871795,27.738705738705736,41.533089133089135,-1.60205078125,-0.7080078125,0.8271484375,-2.61688232421875,0.37384033203125,6.17218017578125,34.336019536019535,-72.27057387057387,92.06251526251526,0.326171875,2.04248046875,0.0595703125,-0.37384033203125,0.17547607421875,0.26702880859375,-58.026373626373626,23.690354090354088,48.28034188034188
16:16.073,-0.1826171875,0.28662109375,2.05810546875,-37.75787353515625,-40.435791015625,5.035400390625,11.695238095238095,28.93821733821734,39.583882783882785,-1.60205078125,-0.7080078125,0.8271484375,-2.61688232421875,0.37384033203125,6.17218017578125,34.336019536019535,-72.27057387057387,92.06251526251526,0.326171875,2.04248046875,0.0595703125,-0.37384033203125,0.17547607421875,0.26702880859375,-58.026373626373626,23.690354090354088,48.28034188034188
16:16.853,-0.125,0.39013671875,1.9794921875,5.82122802734375,-19.195556640625,-11.48223876953125,5.247863247863248,32.386813186813185,30.587545787545785,-1.6044921875,-0.736328125,0.876953125,5.65338134765625,4.8065185546875,-1.36566162109375,32.686691086691084,-73.91990231990232,91.76263736263736,0.30615234375,2.044921875,0.06689453125,-0.67138671875,0.48065185546875,2.2125244140625,-57.42661782661782,24.88986568986569,46.63101343101343
16:17.682,-0.0712890625,0.7216796875,1.8681640625,13.12255859375,1.53350830078125,-20.56121826171875,4.498168498168498,29.537973137973136,34.635897435897434,-1.58984375,-0.75634765625,0.82275390625,-5.340576171875,0.32806396484375,2.75421142578125,32.386813186813185,-75.41929181929181,91.76263736263736,0.31103515625,2.04736328125,0.078125,-1.13677978515625,0.946044921875,2.01416015625,-58.026373626373626,25.03980463980464,47.98046398046398
16:18.462,-0.0712890625,0.7216796875,1.8681640625,-5.401611328125,0.4730224609375,39.6575927734375,6.747252747252747,30.737484737484735,36.285225885225884,-1.6162109375,-0.72705078125,0.83056640625,-8.0108642578125,-0.30517578125,6.98089599609375,32.98656898656898,-71.37094017094017,92.5123321123321,0.29150390625,2.048828125,0.07568359375,-1.47247314453125,1.04522705078125,0.11444091796875,-58.476190476190474,25.93943833943834,47.08083028083028
16:19.290,0.1337890625,0.04296875,2.1630859375,-5.401611328125,0.4730224609375,39.6575927734375,6.747252747252747,30.737484737484735,36.285225885225884,-1.646484375,-0.734375,0.771484375,0.8697509765625,1.09100341796875,-2.105712890625,33.73626373626374,-73.91990231990232,93.26202686202686,0.26708984375,2.04833984375,0.07373046875,-0.83160400390625,-0.7781982421875,1.6326904296875,-58.476190476190474,24.88986568986569,47.08083028083028
16:20.070,0.3037109375,0.1064453125,2.08251953125,-0.4119873046875,-3.2196044921875,-22.39227294921875,13.794383394383393,26.08937728937729,45.73137973137973,-1.646484375,-0.734375,0.771484375,0.8697509765625,1.09100341796875,-2.105712890625,32.536752136752135,-73.47008547008546,92.06251526251526,0.26708984375,2.04833984375,0.07373046875,-0.83160400390625,-0.7781982421875,1.6326904296875,-58.476190476190474,25.93943833943834,49.77973137973138
16:20.899,0.14404296875,0.70556640625,1.98193359375,1.46484375,-8.72802734375,8.60595703125,14.394139194139193,24.88986568986569,45.28156288156288,-1.59326171875,-0.775390625,0.75634765625,-6.011962890625,2.44140625,1.48773193359375,32.536752136752135,-73.47008547008546,92.06251526251526,0.26220703125,2.0537109375,0.06689453125,-1.1749267578125,0.66375732421875,2.227783203125,-58.476190476190474,25.93943833943834,49.77973137973138
16:21.679,0.34912109375,0.0126953125,2.08740234375,-8.8043212890625,11.57379150390625,9.002685546875,5.547741147741148,27.738705738705736,41.533089133089135,-1.62353515625,-0.7578125,0.7880859375,-8.20159912109375,-2.3193359375,0.6866455078125,35.985347985347985,-73.62002442002442,91.16288156288157,0.27392578125,2.04931640625,0.06884765625,-0.69427490234375,1.71661376953125,0.74005126953125,-57.72649572649573,24.88986568986569,46.03125763125763
16:22.459,0.34912109375,0.0126953125,2.08740234375,-8.11004638671875,-11.83319091796875,-50.97198486328125,10.795604395604395,23.84029304029304,45.88131868131868,-1.58154296875,-0.7626953125,0.81591796875,0.79345703125,2.593994140625,-1.2664794921875,34.635897435897434,-72.72039072039071,91.6126984126984,0.302734375,2.0390625,0.07666015625,-0.64849853515625,0.16021728515625,2.3651123046875,-57.42661782661782,26.389255189255188,47.08083028083028
16:23.385,0.400390625,-0.11328125,2.08154296875,-3.95965576171875,-3.74603271484375,29.9835205078125,17.54285714285714,23.84029304029304,52.02881562881563,-1.6484375,-0.7568359375,0.7314453125,-2.67791748046875,1.77001953125,1.50299072265625,34.635897435897434,-74.51965811965812,92.66227106227106,0.27099609375,2.052734375,0.08056640625,-1.41143798828125,1.0986328125,2.17437744140625,-58.326251526251525,24.739926739926737,48.28034188034188
16:24.263,0.19921875,0.61474609375,2.0537109375,-3.95965576171875,-3.74603271484375,29.9835205078125,17.54285714285714,23.84029304029304,52.02881562881563,-1.6484375,-0.7568359375,0.7314453125,-7.07244873046875,-4.34112548828125,3.10516357421875,34.635897435897434,-72.72039072039071,91.01294261294261,0.255859375,2.05029296875,0.07421875,-0.69427490234375,2.1209716796875,-0.6866455078125,-59.07594627594627,26.539194139194137,46.93089133089133
16:25.092,0.2275390625,0.6435546875,1.96484375,7.568359375,26.67236328125,-53.314208984375,11.395360195360196,28.638339438339436,43.78217338217338,-1.669921875,-0.72119140625,0.681640625,-7.07244873046875,-4.34112548828125,3.10516357421875,34.186080586080585,-71.82075702075701,90.11330891330891,0.255859375,2.05029296875,0.07421875,-0.69427490234375,2.1209716796875,-0.6866455078125,-58.476190476190474,25.18974358974359,47.08083028083028
16:25.921,0.09130859375,-0.3427734375,2.087890625,-4.03594970703125,-9.429931640625,2.03704833984375,12.444932844932845,27.13894993894994,40.63345543345543,-1.6396484375,-0.7275390625,0.783203125,-0.5645751953125,-3.204345703125,-0.58746337890625,34.186080586080585,-71.82075702075701,90.11330891330891,0.30908203125,2.04345703125,0.09228515625,0.23651123046875,-2.899169921875,1.5869140625,-58.476190476190474,25.18974358974359,47.08083028083028
16:26.749,0.20751953125,0.56103515625,1.97265625,-2.02178955078125,20.5535888671875,26.55029296875,12.744810744810744,23.54041514041514,50.52942612942613,-1.607421875,-0.72412109375,0.77880859375,0.99945068359375,-1.15966796875,-2.89154052734375,34.635897435897434,-73.02026862026862,90.56312576312575,0.2744140625,2.04638671875,0.06640625,-1.06048583984375,2.8228759765625,2.31170654296875,-58.026373626373626,24.739926739926737,46.48107448107448
16:27.578,0.23974609375,0.5986328125,1.97314453125,-6.56890869140625,34.18731689453125,-47.5311279296875,9.746031746031745,25.18974358974359,41.533089133089135,-1.5966796875,-0.716796875,0.85986328125,-5.5389404296875,1.83868408203125,0.79345703125,33.28644688644688,-73.76996336996336,92.06251526251526,0.30224609375,2.04150390625,0.060546875,-0.9918212890625,1.434326171875,0.701904296875,-57.42661782661782,24.88986568986569,47.380708180708176
16:28.358,0.23974609375,0.5986328125,1.97314453125,-6.56890869140625,34.18731689453125,-47.5311279296875,11.245421245421245,25.93943833943834,43.63223443223443,-1.53662109375,-0.71142578125,0.88037109375,-3.3416748046875,2.044677734375,5.13458251953125,32.536752136752135,-73.47008547008546,91.6126984126984,0.318359375,2.04296875,0.07177734375,-0.77056884765625,-0.52642822265625,2.51007080078125,-58.476190476190474,25.93943833943834,46.63101343101343
16:29.187,0.39599609375,-0.2548828125,2.11376953125,-20.57647705078125,8.0718994140625,14.86968994140625,11.245421245421245,25.93943833943834,43.63223443223443,-1.53662109375,-0.71142578125,0.88037109375,0.49591064453125,2.2125244140625,-2.777099609375,34.186080586080585,-73.91990231990232,92.81221001221,0.318359375,2.04296875,0.07177734375,-1.678466796875,0.8697509765625,2.20489501953125,-57.72649572649573,24.589987789987788,47.08083028083028
16:30.015,0.2705078125,0.23876953125,1.97265625,2.4566650390625,-5.71441650390625,15.14434814453125,19.49206349206349,22.19096459096459,53.97802197802198,-1.58056640625,-0.712890625,0.88427734375,0.49591064453125,2.2125244140625,-2.777099609375,34.186080586080585,-73.91990231990232,92.81221001221,0.291015625,2.04931640625,0.06787109375,-1.678466796875,0.8697509765625,2.20489501953125,-57.72649572649573,24.589987789987788,47.08083028083028
16:30.795,0.2509765625,0.865234375,1.82568359375,-0.12969970703125,-58.319091796875,-13.8397216796875,14.394139194139193,24.88986568986569,44.23199023199023,-1.6201171875,-0.708984375,0.89013671875,-5.5694580078125,-3.3721923828125,3.71551513671875,32.836630036630034,-74.06984126984126,93.11208791208792,0.310546875,2.0439453125,0.07080078125,-0.23651123046875,2.3193359375,0.5645751953125,-58.77606837606837,25.78949938949939,47.98046398046398
16:31.624,0.47900390625,0.0048828125,2.0654296875,-18.45550537109375,0.9002685546875,0.22125244140625,20.69157509157509,24.14017094017094,45.88131868131868,-1.5654296875,-0.71435546875,0.89892578125,-5.28717041015625,-0.84686279296875,3.5552978515625,32.386813186813185,-73.91990231990232,93.56190476190476,0.302734375,2.04443359375,0.06201171875,-0.030517578125,1.31988525390625,0.457763671875,-58.476190476190474,23.39047619047619,48.73015873015873
16:32.404,0.47900390625,0.0048828125,2.0654296875,-18.45550537109375,0.9002685546875,0.22125244140625,19.64200244200244,20.99145299145299,51.72893772893773,-1.6162109375,-0.732421875,0.9013671875,-0.396728515625,2.95257568359375,-0.29754638671875,32.08693528693529,-74.06984126984126,95.2112332112332,0.3291015625,2.04248046875,0.08349609375,-0.2899169921875,-7.05718994140625,0.18310546875,-58.326251526251525,23.690354090354088,47.98046398046398
16:33.184,0.197265625,-0.37646484375,2.07275390625,-12.39013671875,-8.4228515625,-38.4521484375,19.64200244200244,20.99145299145299,51.72893772893773,-1.6162109375,-0.732421875,0.9013671875,-2.410888671875,-1.251220703125,0.75531005859375,34.186080586080585,-74.66959706959706,92.81221001221,0.3291015625,2.04248046875,0.08349609375,-1.0833740234375,4.46319580078125,3.22723388671875,-58.476190476190474,23.84029304029304,47.08083028083028
16:33.965,0.22314453125,0.587890625,2.02978515625,-4.90570068359375,12.359619140625,54.23736572265625,24.29010989010989,20.99145299145299,55.77728937728938,-1.6005859375,-0.7451171875,0.89990234375,-2.410888671875,-1.251220703125,0.75531005859375,34.186080586080585,-74.66959706959706,92.81221001221,0.3046875,2.05224609375,0.0634765625,-1.0833740234375,4.46319580078125,3.22723388671875,-58.476190476190474,23.84029304029304,47.08083028083028
16:34.744,-0.0009765625,0.6630859375,1.89697265625,13.1378173828125,-37.83416748046875,-44.92950439453125,14.244200244200243,23.54041514041514,45.431501831501826,-1.5439453125,-0.69287109375,0.9013671875,-5.74493408203125,-2.26593017578125,1.10626220703125,32.836630036630034,-75.56923076923077,92.66227106227106,0.294921875,2.041015625,0.060546875,-0.90789794921875,0.9307861328125,1.12152099609375,-58.026373626373626,23.99023199023199,46.93089133089133
16:35.622,0.31787109375,-0.1328125,2.0869140625,-3.85284423828125,-5.828857421875,22.979736328125,14.394139194139193,25.93943833943834,43.63223443223443,-1.607421875,-0.65380859375,0.8408203125,-3.04412841796875,5.0201416015625,3.10516357421875,33.73626373626374,-72.87032967032967,93.86178266178266,0.3251953125,2.04150390625,0.08056640625,-0.732421875,-0.06103515625,-0.8697509765625,-60.275457875457874,24.589987789987788,46.03125763125763
16:36.402,0.31787109375,-0.1328125,2.0869140625,-3.85284423828125,-5.828857421875,22.979736328125,15.893528693528692,23.54041514041514,48.13040293040293,-1.74072265625,-0.6298828125,0.763671875,0.99945068359375,1.2054443359375,-0.579833984375,31.787057387057384,-75.26935286935287,93.11208791208792,0.26123046875,2.04638671875,0.05224609375,-1.33514404296875,-0.37384033203125,2.11334228515625,-59.825641025641026,25.03980463980464,47.230769230769226
16:37.182,0.34814453125,-0.14208984375,2.02294921875,-1.6326904296875,9.7503662109375,-20.0958251953125,15.893528693528692,23.54041514041514,48.13040293040293,-1.74072265625,-0.6298828125,0.763671875,-3.082275390625,-1.3580322265625,-0.64849853515625,31.787057387057384,-69.72161172161172,88.76385836385836,0.26123046875,2.04638671875,0.05224609375,-1.3427734375,3.05938720703125,3.15093994140625,-58.326251526251525,25.03980463980464,47.98046398046398
16:37.962,0.0888671875,0.69140625,2.08251953125,-7.22503662109375,-9.765625,23.67401123046875,19.64200244200244,23.09059829059829,49.62979242979243,-1.7099609375,-0.65380859375,0.72900390625,-3.082275390625,-1.3580322265625,-0.64849853515625,31.787057387057384,-69.72161172161172,88.76385836385836,0.29541015625,2.03955078125,0.080078125,-1.3427734375,3.05938720703125,3.15093994140625,-58.326251526251525,25.03980463980464,47.98046398046398
16:38.839,0.14453125,0.34521484375,1.974609375,21.55303955078125,63.01116943359375,-16.1285400390625,17.692796092796094,25.03980463980464,45.13162393162393,-1.669921875,-0.6962890625,0.7431640625,-6.95037841796875,-2.960205078125,1.24359130859375,32.386813186813185,-70.62124542124542,89.66349206349206,0.33154296875,2.041015625,0.07470703125,-0.457763671875,2.11334228515625,0.95367431640625,-57.72649572649573,24.88986568986569,47.08083028083028
16:39.619,0.38427734375,-0.3212890625,2.08056640625,8.026123046875,-6.76727294921875,-6.34765625,12.594871794871795,26.98901098901099,44.23199023199023,-1.650390625,-0.7001953125,0.76123046875,-3.9215087890625,-1.0833740234375,1.30462646484375,33.28644688644688,-71.52087912087912,91.31282051282051,0.25048828125,2.06201171875,0.07470703125,-0.5340576171875,-0.64849853515625,2.9144287109375,-58.326251526251525,24.29010989010989,46.48107448107448
16:40.400,0.38427734375,-0.3212890625,2.08056640625,8.026123046875,-6.76727294921875,-6.34765625,20.841514041514042,23.54041514041514,50.829304029304026,-1.63525390625,-0.79296875,0.76318359375,0.8544921875,-0.79345703125,-0.5645751953125,32.686691086691084,-73.62002442002442,92.2124542124542,0.26025390625,2.05224609375,0.07177734375,-1.33514404296875,0.31280517578125,3.875732421875,-60.125518925518925,25.489621489621488,47.98046398046398
16:41.228,0.11181640625,0.3681640625,2.07666015625,-16.5557861328125,-9.65118408203125,21.759033203125,20.841514041514042,23.54041514041514,50.829304029304026,-1.63525390625,-0.79296875,0.76318359375,-5.6915283203125,1.1138916015625,2.00653076171875,34.336019536019535,-71.97069597069597,90.56312576312575,0.3095703125,2.041015625,0.0712890625,-1.0833740234375,1.57928466796875,0.35858154296875,-58.176312576312576,25.639560439560437,46.03125763125763
16:42.057,0.2041015625,0.630859375,1.99951171875,4.69970703125,-7.4615478515625,-30.70068359375,14.694017094017093,25.639560439560437,44.23199023199023,-1.63916015625,-0.7333984375,0.78759765625,-5.6915283203125,1.1138916015625,2.00653076171875,33.58632478632479,-73.47008547008546,93.71184371184371,0.3095703125,2.041015625,0.0712890625,-1.0833740234375,1.57928466796875,0.35858154296875,-59.07594627594627,22.94065934065934,49.030036630036626
16:42.934,0.40283203125,-0.25634765625,2.08349609375,-7.2784423828125,-19.744873046875,-2.99072265625,17.692796092796094,26.83907203907204,39.28400488400488,-1.6220703125,-0.73681640625,0.78759765625,-0.17547607421875,-0.37384033203125,0.18310546875,33.58632478632479,-73.47008547008546,93.71184371184371,0.3251953125,2.0380859375,0.05908203125,-0.32806396484375,-0.5645751953125,1.09100341796875,-59.07594627594627,22.94065934065934,49.030036630036626
16:43.763,0.208984375,0.55615234375,2.02880859375,-5.7525634765625,-5.8441162109375,29.89959716796875,19.791941391941393,18.29255189255189,56.97680097680097,-1.5908203125,-0.78466796875,0.80615234375,-1.83868408203125,-1.3885498046875,0.26702880859375,33.88620268620269,-72.27057387057387,91.31282051282051,0.30419921875,2.05712890625,0.06591796875,-1.44195556640625,1.434326171875,0.7171630859375,-58.326251526251525,24.739926739926737,46.93089133089133
16:44.690,0.3642578125,0.263671875,2.0419921875,-6.3629150390625,-4.61578369140625,3.173828125,15.143833943833943,26.689133089133087,39.433943833943836,-1.734375,-0.66455078125,0.59716796875,-12.3138427734375,5.9814453125,4.43267822265625,33.73626373626374,-73.91990231990232,92.2124542124542,0.2568359375,2.0615234375,0.10009765625,-0.7781982421875,0.885009765625,3.1890869140625,-61.624908424908426,27.288888888888888,49.030036630036626
16:45.470,0.3642578125,0.263671875,2.0419921875,20.5535888671875,-6.3018798828125,-33.0657958984375,14.244200244200243,24.29010989010989,44.38192918192918,-1.78662109375,-0.76806640625,0.435546875,-3.326416015625,9.368896484375,-1.28173828125,35.23565323565323,-71.37094017094017,85.46520146520146,0.3046875,2.0458984375,0.1162109375,-0.1373291015625,-0.0457763671875,1.41143798828125,-58.026373626373626,25.489621489621488,49.329914529914525
16:46.298,0.28369140625,-0.03955078125,1.990234375,20.5535888671875,-6.3018798828125,-33.0657958984375,14.244200244200243,24.29010989010989,44.38192918192918,-1.76708984375,-0.68212890625,0.42626953125,4.70733642578125,-0.08392333984375,-3.47137451171875,36.285225885225884,-68.07228327228327,82.31648351648352,0.302734375,2.03955078125,0.09619140625,-1.6326904296875,0.48828125,2.8533935546875,-58.77606837606837,28.338461538461537,50.37948717948718
16:47.078,0.44384765625,0.5576171875,1.94970703125,-4.425048828125,-2.5482177734375,17.578125,10.045909645909646,22.19096459096459,43.78217338217338,-1.76708984375,-0.68212890625,0.42626953125,4.70733642578125,-0.08392333984375,-3.47137451171875,34.485958485958484,-70.62124542124542,82.61636141636141,0.302734375,2.03955078125,0.09619140625,-1.6326904296875,0.48828125,2.8533935546875,-57.27667887667887,25.489621489621488,49.329914529914525
16:47.956,0.48193359375,0.400390625,1.9326171875,-8.9111328125,7.43865966796875,-10.44464111328125,14.244200244200243,23.99023199023199,43.03247863247863,-1.7626953125,-0.74072265625,0.40234375,-8.94927978515625,-1.3427734375,5.91278076171875,34.485958485958484,-70.62124542124542,82.61636141636141,0.30908203125,2.05029296875,0.10400390625,-0.3509521484375,1.1138916015625,0.9918212890625,-57.27667887667887,25.489621489621488,49.329914529914525
16:48.735,0.5283203125,-0.18359375,1.82958984375,0.0762939453125,-6.75201416015625,-18.5699462890625,9.296214896214895,20.39169719169719,36.88498168498168,-1.76953125,-0.63134765625,0.48828125,-1.220703125,2.044677734375,-1.38092041015625,35.38559218559219,-69.72161172161172,81.86666666666666,0.34423828125,2.04541015625,0.11572265625,0.1373291015625,0.518798828125,1.89971923828125,-58.026373626373626,24.739926739926737,49.030036630036626
16:49.515,0.45849609375,0.48388671875,1.98388671875,-1.8463134765625,-4.98199462890625,23.345947265625,19.64200244200244,17.692796092796094,53.37826617826617,-1.76708984375,-0.62841796875,0.5498046875,2.96783447265625,0.4730224609375,-0.38909912109375,33.43638583638584,-69.12185592185592,82.01660561660562,0.3125,2.03515625,0.09912109375,-1.6326904296875,-0.335693359375,2.6702880859375,-58.77606837606837,25.78949938949939,49.329914529914525
16:50.295,0.45849609375,0.48388671875,1.98388671875,-1.8463134765625,-4.98199462890625,23.345947265625,19.64200244200244,17.692796092796094,53.37826617826617,-1.8095703125,-0.685546875,0.47705078125,-10.7879638671875,-4.7607421875,1.88446044921875,32.536752136752135,-69.42173382173382,82.46642246642246,0.30712890625,2.04931640625,0.10546875,-2.60162353515625,-0.89263916015625,2.31170654296875,-58.176312576312576,23.84029304029304,48.73015873015873
16:51.075,0.25537109375,0.369140625,2.03857421875,-20.44677734375,29.76226806640625,-5.43212890625,16.193406593406593,22.79072039072039,38.084493284493284,-1.8095703125,-0.685546875,0.47705078125,-10.7879638671875,-4.7607421875,1.88446044921875,32.536752136752135,-69.42173382173382,82.46642246642246,0.30712890625,2.04931640625,0.10546875,-2.60162353515625,-0.89263916015625,2.31170654296875,-58.176312576312576,23.84029304029304,48.73015873015873
16:51.904,0.64990234375,-0.3935546875,2.18017578125,-6.439208984375,16.5252685546875,42.97637939453125,12.444932844932845,23.54041514041514,43.78217338217338,-1.75048828125,-0.62744140625,0.5498046875,-4.21905517578125,-2.15911865234375,3.9825439453125,31.637118437118435,-68.82197802197803,84.86544566544566,0.3212890625,2.0478515625,0.09765625,0.5035400390625,5.11932373046875,-1.1138916015625,-58.326251526251525,24.739926739926737,49.030036630036626
16:52.684,0.60546875,0.02685546875,1.9296875,6.8359375,-9.59014892578125,-23.09417724609375,19.19218559218559,14.694017094017093,50.52942612942613,-1.75048828125,-0.65185546875,0.58056640625,0.83160400390625,4.23431396484375,-3.33404541015625,31.787057387057384,-68.97191697191697,84.26568986568986,0.31689453125,2.0400390625,0.11083984375,-1.4801025390625,-2.044677734375,3.77655029296875,-58.026373626373626,25.489621489621488,48.58021978021978
16:53.465,0.60546875,0.02685546875,1.9296875,7.53021240234375,-25.5584716796875,-32.05108642578125,17.692796092796094,18.59242979242979,53.97802197802198,-1.728515625,-0.61767578125,0.64013671875,2.17437744140625,-0.75531005859375,1.94549560546875,31.787057387057384,-68.67203907203907,85.31526251526252,0.31640625,2.04345703125,0.107421875,-1.1749267578125,0.29754638671875,2.43377685546875,-57.42661782661782,24.88986568986569,48.73015873015873
16:54.244,0.05712890625,1.01708984375,1.98388671875,7.53021240234375,-25.5584716796875,-32.05108642578125,17.692796092796094,18.59242979242979,53.97802197802198,-1.728515625,-0.61767578125,0.64013671875,-10.09368896484375,-5.55419921875,4.73785400390625,31.187301587301587,-71.07106227106227,83.66593406593407,0.31640625,2.04345703125,0.107421875,-0.48065185546875,1.97601318359375,1.22833251953125,-59.22588522588522,24.88986568986569,48.43028083028083
16:55.024,0.71923828125,0.234375,1.982421875,8.697509765625,57.43408203125,19.06585693359375,18.29255189255189,23.84029304029304,42.13284493284493,-1.78173828125,-0.66162109375,0.5791015625,-10.09368896484375,-5.55419921875,4.73785400390625,31.187301587301587,-71.07106227106227,83.66593406593407,0.2958984375,2.04833984375,0.08984375,-0.48065185546875,1.97601318359375,1.22833251953125,-59.22588522588522,24.88986568986569,48.43028083028083
16:55.804,0.67138671875,-0.4013671875,1.96484375,-17.3797607421875,-8.97979736328125,-3.57818603515625,11.395360195360196,19.64200244200244,49.479853479853475,-1.7802734375,-0.5546875,0.58544921875,4.60052490234375,0.4119873046875,0.67138671875,33.73626373626374,-71.07106227106227,84.4156288156288,0.34814453125,2.03857421875,0.107421875,0.579833984375,1.739501953125,0.091552734375,-58.026373626373626,25.489621489621488,49.030036630036626
16:56.584,0.45751953125,0.271484375,2.01123046875,7.37762451171875,-9.01031494140625,-3.448486328125,21.89108669108669,14.993894993894994,59.37582417582417,-1.7119140625,-0.69482421875,0.66162109375,0.77056884765625,3.2958984375,-5.04302978515625,30.887423687423688,-67.32258852258852,86.21489621489621,0.30712890625,2.04443359375,0.10595703125,-1.57928466796875,0.00762939453125,2.79998779296875,-58.476190476190474,25.639560439560437,48.13040293040293
16:57.364,0.45751953125,0.271484375,2.01123046875,7.37762451171875,-9.01031494140625,-3.448486328125,16.343345543345542,19.042246642246642,50.829304029304026,-1.72021484375,-0.66845703125,0.537109375,1.79290771484375,-0.86212158203125,-1.33514404296875,32.686691086691084,-69.57167277167277,85.46520146520146,0.31298828125,2.04931640625,0.10595703125,-2.0599365234375,-0.213623046875,2.29644775390625,-58.176312576312576,24.14017094017094,49.77973137973138
16:58.144,0.24853515625,0.6796875,1.96826171875,-12.26043701171875,-21.0113525390625,9.66644287109375,16.343345543345542,19.042246642246642,50.829304029304026,-1.72021484375,-0.66845703125,0.537109375,-15.76995849609375,-4.85992431640625,9.6435546875,32.536752136752135,-69.42173382173382,82.91623931623931,0.31298828125,2.04931640625,0.10595703125,-0.74005126953125,1.44195556640625,1.76239013671875,-57.12673992673992,24.14017094017094,48.73015873015873
16:58.973,0.21435546875,0.71826171875,2.1552734375,16.99066162109375,20.46966552734375,-24.14703369140625,15.893528693528692,23.54041514041514,45.431501831501826,-1.6875,-0.67333984375,0.6357421875,-15.76995849609375,-4.85992431640625,9.6435546875,32.536752136752135,-69.42173382173382,82.91623931623931,0.29296875,2.0478515625,0.10595703125,-0.74005126953125,1.44195556640625,1.76239013671875,-57.12673992673992,24.14017094017094,48.73015873015873
16:59.753,0.47607421875,-0.1875,1.88720703125,-0.43487548828125,11.84844970703125,-8.85772705078125,10.195848595848595,23.84029304029304,44.98168498168498,-1.76025390625,-0.65234375,0.6005859375,-4.39453125,1.2359619140625,-0.7171630859375,30.887423687423688,-71.07106227106227,85.16532356532356,0.31689453125,2.04150390625,0.09912109375,-0.49591064453125,1.5716552734375,0.67138671875,-59.37582417582417,25.78949938949939,47.98046398046398
17:00.533,0.45556640625,0.58154296875,1.92138671875,5.25665283203125,-23.6968994140625,6.9580078125,19.19218559218559,15.443711843711844,57.72649572649573,-1.7451171875,-0.66552734375,0.5693359375,1.80816650390625,-0.91552734375,-1.79290771484375,34.186080586080585,-69.57167277167277,86.51477411477411,0.330078125,2.04345703125,0.10791015625,-2.43377685546875,0.69427490234375,3.60870361328125,-57.12673992673992,24.88986568986569,48.43028083028083
17:01.313,0.45556640625,0.58154296875,1.92138671875,5.25665283203125,-23.6968994140625,6.9580078125,9.746031746031745,22.04102564102564,45.28156288156288,-1.76318359375,-0.65234375,0.60302734375,-17.1661376953125,-8.49151611328125,12.07733154296875,32.536752136752135,-70.47130647130646,85.31526251526252,0.3388671875,2.04248046875,0.099609375,-1.708984375,-1.38092041015625,0.030517578125,-58.026373626373626,23.99023199023199,48.58021978021978
17:02.142,0.24609375,0.7060546875,1.97412109375,-0.732421875,39.3829345703125,-18.9056396484375,9.746031746031745,22.04102564102564,45.28156288156288,-1.76318359375,-0.65234375,0.60302734375,-17.1661376953125,-8.49151611328125,12.07733154296875,33.58632478632479,-68.67203907203907,85.61514041514042,0.3388671875,2.04248046875,0.099609375,-1.708984375,-1.38092041015625,0.030517578125,-57.42661782661782,24.589987789987788,48.43028083028083
17:02.923,0.40234375,-0.25634765625,2.0703125,0.9765625,4.72259521484375,21.64459228515625,9.596092796092796,27.588766788766787,41.683028083028084,-1.708984375,-0.59912109375,0.7333984375,-14.9383544921875,-11.016845703125,6.77490234375,33.58632478632479,-68.67203907203907,85.61514041514042,0.28662109375,2.05517578125,0.0712890625,-0.37384033203125,0.09918212890625,-2.74658203125,-57.42661782661782,24.589987789987788,48.43028083028083
17:03.750,0.5126953125,-0.0078125,2.02099609375,1.59454345703125,-3.54766845703125,-27.1453857421875,18.892307692307693,20.54163614163614,54.427838827838826,-1.6787109375,-0.7802734375,0.61376953125,-3.2806396484375,7.83538818359375,-5.13458251953125,32.98656898656898,-70.62124542124542,89.06373626373626,0.3779296875,2.029296875,0.08740234375,-1.4495849609375,-2.38800048828125,-1.50299072265625,-56.826862026862024,25.489621489621488,48.58021978021978
17:04.530,0.17626953125,0.3828125,2.08984375,-0.091552734375,-9.5062255859375,5.28717041015625,21.59120879120879,21.44126984126984,56.377045177045176,-1.65380859375,-0.89697265625,0.59765625,-2.716064453125,-1.5411376953125,-0.48828125,37.784615384615385,-71.82075702075701,87.56434676434677,0.3837890625,2.0390625,0.0791015625,-0.1068115234375,1.0833740234375,2.70843505859375,-58.92600732600732,23.84029304029304,47.68058608058608
17:05.359,0.17626953125,0.3828125,2.08984375,-0.091552734375,-9.5062255859375,5.28717041015625,14.843956043956043,23.54041514041514,47.83052503052503,-1.62744140625,-0.8828125,0.6162109375,-8.636474609375,0.5950927734375,1.51824951171875,37.18485958485958,-73.02026862026862,87.71428571428571,0.39111328125,2.0341796875,0.07568359375,-0.45013427734375,1.3427734375,1.28936767578125,-57.57655677655677,23.690354090354088,48.58021978021978
17:06.139,0.1064453125,0.26416015625,2.1240234375,-15.4876708984375,-10.3607177734375,0.49591064453125,14.843956043956043,23.54041514041514,47.83052503052503,-1.62744140625,-0.8828125,0.6162109375,-8.636474609375,0.5950927734375,1.51824951171875,36.135286935286935,-72.72039072039071,89.51355311355312,0.39111328125,2.0341796875,0.07568359375,-0.45013427734375,1.3427734375,1.28936767578125,-58.476190476190474,23.39047619047619,47.68058608058608
17:06.920,0.45703125,-0.47314453125,1.9404296875,-1.97601318359375,-4.4708251953125,1.30462646484375,16.49328449328449,24.88986568986569,45.58144078144078,-1.60888671875,-0.8984375,0.65283203125,-1.28936767578125,-0.05340576171875,0.030517578125,36.135286935286935,-72.72039072039071,89.51355311355312,0.40966796875,2.03125,0.08544921875,-0.49591064453125,0.244140625,1.373291015625,-58.476190476190474,23.39047619047619,47.68058608058608
17:07.748,0.236328125,0.49169921875,2.03125,-10.2386474609375,-19.95849609375,31.036376953125,26.539194139194137,16.193406593406593,60.425396825396824,-1.599609375,-0.869140625,0.65087890625,1.70135498046875,1.60980224609375,-0.60272216796875,35.985347985347985,-70.62124542124542,89.06373626373626,0.41650390625,2.02392578125,0.07861328125,-1.2054443359375,1.8463134765625,3.07464599609375,-58.026373626373626,22.19096459096459,47.53064713064713
17:08.528,-0.00537109375,0.384765625,1.947265625,7.62939453125,-16.387939453125,-39.80255126953125,17.692796092796094,22.94065934065934,49.179975579975576,-1.60595703125,-0.8935546875,0.6826171875,-2.6397705078125,-2.57110595703125,0.61798095703125,37.934554334554335,-72.72039072039071,90.26324786324786,0.3779296875,2.0283203125,0.076171875,-0.96893310546875,1.2664794921875,1.5869140625,-58.92600732600732,23.84029304029304,46.63101343101343
17:09.308,-0.00537109375,0.384765625,1.947265625,7.62939453125,-16.387939453125,-39.80255126953125,17.692796092796094,22.94065934065934,49.179975579975576,-1.6005859375,-0.8310546875,0.70068359375,-9.07135009765625,0.00762939453125,4.0130615234375,37.934554334554335,-71.22100122100122,91.01294261294261,0.39501953125,2.03076171875,0.0771484375,-0.86212158203125,0.90789794921875,1.0986328125,-58.026373626373626,23.24053724053724,49.030036630036626
17:10.088,0.50634765625,-0.361328125,2.1181640625,1.36566162109375,20.65277099609375,34.49249267578125,16.343345543345542,23.24053724053724,47.08083028083028,-1.6005859375,-0.8310546875,0.70068359375,-9.07135009765625,0.00762939453125,4.0130615234375,35.68547008547009,-71.22100122100122,90.26324786324786,0.39501953125,2.03076171875,0.0771484375,-0.86212158203125,0.90789794921875,1.0986328125,-59.37582417582417,21.44126984126984,49.62979242979243
17:10.868,0.25830078125,-0.06494140625,2.04296875,-3.01361083984375,-23.529052734375,-17.39501953125,27.13894993894994,15.593650793650793,61.32503052503052,-1.6064453125,-0.8056640625,0.6845703125,2.1820068359375,1.62506103515625,-0.11444091796875,35.68547008547009,-71.22100122100122,90.26324786324786,0.38330078125,2.02978515625,0.0888671875,-1.7547607421875,0.3204345703125,1.85394287109375,-59.37582417582417,21.44126984126984,49.62979242979243
17:11.648,0.05712890625,0.5546875,1.93408203125,-2.66265869140625,-4.11224365234375,24.9786376953125,19.64200244200244,22.34090354090354,53.37826617826617,-1.63916015625,-0.876953125,0.6796875,-4.32586669921875,-4.58526611328125,2.72369384765625,37.03492063492063,-71.37094017094017,91.16288156288157,0.2958984375,2.05126953125,0.07080078125,-0.640869140625,3.02886962890625,-1.6326904296875,-58.176312576312576,23.09059829059829,47.380708180708176
17:12.428,0.05712890625,0.5546875,1.93408203125,4.6844482421875,-12.32147216796875,-10.650634765625,18.59242979242979,25.639560439560437,45.58144078144078,-1.66064453125,-0.82666015625,0.68994140625,-4.638671875,-0.1983642578125,0.55694580078125,36.135286935286935,-71.52087912087912,89.96336996336996,0.34765625,2.041015625,0.07763671875,-0.75531005859375,0.335693359375,0.00762939453125,-58.77606837606837,22.94065934065934,48.28034188034188
17:13.208,0.0634765625,0.1474609375,2.115234375,4.6844482421875,-12.32147216796875,-10.650634765625,18.59242979242979,25.639560439560437,45.58144078144078,-1.66064453125,-0.82666015625,0.68994140625,1.0833740234375,1.28173828125,-1.83868408203125,35.68547008547009,-73.02026862026862,90.56312576312575,0.34765625,2.041015625,0.07763671875,-0.67138671875,-2.09808349609375,3.692626953125,-57.72649572649573,23.09059829059829,47.380708180708176
17:13.988,0.32275390625,-0.4833984375,1.92236328125,4.39453125,-6.90460205078125,-12.6190185546875,17.692796092796094,22.94065934065934,50.52942612942613,-1.61962890625,-0.75927734375,0.78173828125,1.0833740234375,1.28173828125,-1.83868408203125,35.68547008547009,-73.02026862026862,90.56312576312575,0.37890625,2.03955078125,0.08544921875,-0.67138671875,-2.09808349609375,3.692626953125,-57.72649572649573,23.09059829059829,47.380708180708176
17:14.768,0.26904296875,0.47119140625,1.9873046875,-14.94598388671875,14.34326171875,42.45758056640625,22.19096459096459,18.44249084249084,59.52576312576312,-1.61328125,-0.845703125,0.75146484375,2.6397705078125,-2.20489501953125,0.29754638671875,34.78583638583638,-73.91990231990232,91.16288156288157,0.3515625,2.03271484375,0.0615234375,-1.19781494140625,3.997802734375,3.1890869140625,-56.526984126984125,24.29010989010989,47.230769230769226
17:15.548,0.12353515625,0.32666015625,1.8662109375,-8.6212158203125,20.05767822265625,-58.72344970703125,15.143833943833943,20.54163614163614,49.62979242979243,-1.654296875,-0.75244140625,0.82421875,-13.93890380859375,-3.70025634765625,4.5318603515625,35.38559218559219,-71.52087912087912,93.11208791208792,0.34521484375,2.04541015625,0.0751953125,-0.9918212890625,2.166748046875,0.22125244140625,-57.27667887667887,24.739926739926737,47.230769230769226
17:16.377,0.12353515625,0.32666015625,1.8662109375,-8.6212158203125,20.05767822265625,-58.72344970703125,17.54285714285714,20.24175824175824,50.37948717948718,-1.5869140625,-0.79736328125,0.7763671875,-1.15203857421875,-3.021240234375,0.70953369140625,34.186080586080585,-72.87032967032967,92.81221001221,0.3544921875,2.03857421875,0.0771484375,-0.5340576171875,1.15203857421875,1.09100341796875,-58.476190476190474,24.589987789987788,48.43028083028083
17:17.157,0.876953125,-0.52001953125,1.8515625,0.6103515625,-14.068603515625,4.58526611328125,17.54285714285714,20.24175824175824,50.37948717948718,-1.5869140625,-0.79736328125,0.7763671875,1.434326171875,1.77764892578125,-0.1373291015625,35.38559218559219,-73.47008547008546,93.11208791208792,0.3544921875,2.03857421875,0.0771484375,-1.2664794921875,1.007080078125,2.69317626953125,-58.92600732600732,23.84029304029304,48.73015873015873
17:17.985,0.404296875,0.1533203125,1.94384765625,-7.62939453125,-6.378173828125,3.8604736328125,26.83907203907204,12.894749694749695,61.47496947496947,-1.60107421875,-0.8291015625,0.736328125,1.434326171875,1.77764892578125,-0.1373291015625,35.38559218559219,-73.47008547008546,93.11208791208792,0.35107421875,2.04443359375,0.068359375,-1.2664794921875,1.007080078125,2.69317626953125,-58.92600732600732,23.84029304029304,48.73015873015873
17:18.765,0.3681640625,0.84521484375,1.9169921875,11.77215576171875,-14.57977294921875,-8.544921875,14.843956043956043,18.29255189255189,52.17875457875458,-1.62060546875,-0.8291015625,0.6904296875,-4.5318603515625,-3.23486328125,1.068115234375,37.18485958485958,-74.51965811965812,91.6126984126984,0.39453125,2.04052734375,0.08251953125,-0.4119873046875,6.561279296875,-0.7781982421875,-58.77606837606837,22.19096459096459,47.230769230769226
17:19.546,0.62353515625,-0.11376953125,2.00537109375,-1.4190673828125,37.75787353515625,1.39617919921875,21.14139194139194,23.39047619047619,47.380708180708176,-1.61376953125,-0.75244140625,0.76318359375,-4.08172607421875,2.20489501953125,0.17547607421875,38.084493284493284,-72.87032967032967,92.2124542124542,0.3583984375,2.03759765625,0.064453125,-1.10626220703125,-0.19073486328125,2.05230712890625,-58.77606837606837,23.690354090354088,47.230769230769226
17:20.374,0.62353515625,-0.11376953125,2.00537109375,-1.4190673828125,37.75787353515625,1.39617919921875,23.84029304029304,15.893528693528692,59.22588522588522,-1.6123046875,-0.7783203125,0.7333984375,4.45556640625,1.8768310546875,2.3345947265625,35.38559218559219,-73.02026862026862,90.56312576312575,0.33642578125,2.03662109375,0.080078125,-0.3204345703125,0.3662109375,1.79290771484375,-58.476190476190474,24.589987789987788,48.73015873015873
17:21.154,0.31591796875,-0.21484375,2.00830078125,4.29534912109375,-27.6031494140625,-6.439208984375,23.84029304029304,15.893528693528692,59.22588522588522,-1.6123046875,-0.7783203125,0.7333984375,4.45556640625,1.8768310546875,2.3345947265625,34.336019536019535,-71.52087912087912,91.6126984126984,0.33642578125,2.03662109375,0.080078125,-0.3204345703125,0.3662109375,1.79290771484375,-59.07594627594627,25.03980463980464,47.53064713064713
17:21.934,0.29833984375,0.79248046875,2.0400390625,-11.20758056640625,17.44842529296875,64.788818359375,18.29255189255189,19.49206349206349,55.47741147741147,-1.611328125,-0.84521484375,0.66796875,-1.59454345703125,1.13677978515625,0.457763671875,34.336019536019535,-71.52087912087912,91.6126984126984,0.333984375,2.03759765625,0.08251953125,-1.48773193359375,2.74658203125,2.899169921875,-59.07594627594627,25.03980463980464,47.53064713064713
17:22.714,0.501953125,0.5673828125,1.861328125,7.20977783203125,5.86700439453125,-49.88861083984375,17.093040293040293,22.94065934065934,49.179975579975576,-1.6533203125,-0.7734375,0.7265625,-7.63702392578125,-4.3182373046875,4.31060791015625,34.485958485958484,-73.91990231990232,90.41318681318681,0.33056640625,2.044921875,0.06884765625,-1.06048583984375,1.02996826171875,1.46484375,-58.176312576312576,25.639560439560437,47.380708180708176
17:23.494,0.501953125,0.5673828125,1.861328125,-0.0152587890625,1.53350830078125,-0.41961669921875,14.694017094017093,23.84029304029304,42.58266178266178,-1.60986328125,-0.7744140625,0.8076171875,-4.67681884765625,0.72479248046875,3.1280517578125,33.73626373626374,-74.36971916971916,91.46275946275946,0.36669921875,2.0400390625,0.076171875,-0.92315673828125,-2.3193359375,1.251220703125,-59.825641025641026,24.739926739926737,48.28034188034188
17:24.274,0.53466796875,-0.27685546875,2.05419921875,-0.0152587890625,1.53350830078125,-0.41961669921875,14.694017094017093,23.84029304029304,42.58266178266178,-1.67724609375,-0.84619140625,0.72509765625,-2.5787353515625,5.30242919921875,-2.75421142578125,35.08571428571428,-73.02026862026862,92.06251526251526,0.31982421875,2.0458984375,0.0732421875,-1.129150390625,3.7994384765625,2.288818359375,-58.92600732600732,24.14017094017094,48.13040293040293
17:25.103,0.341796875,0.0869140625,2.03662109375,8.3770751953125,-14.77813720703125,6.439208984375,18.142612942612942,16.193406593406593,54.27789987789988,-1.67724609375,-0.84619140625,0.72509765625,-2.5787353515625,5.30242919921875,-2.75421142578125,35.38559218559219,-73.76996336996336,91.6126984126984,0.31982421875,2.0458984375,0.0732421875,-1.129150390625,3.7994384765625,2.288818359375,-60.72527472527472,23.84029304029304,48.73015873015873
17:25.932,0.03515625,0.86767578125,1.89111328125,2.5482177734375,-3.41033935546875,1.53350830078125,12.145054945054945,20.39169719169719,47.08083028083028,-1.60791015625,-0.79931640625,0.70166015625,-6.59942626953125,1.4190673828125,1.190185546875,35.38559218559219,-73.76996336996336,91.6126984126984,0.34716796875,2.04296875,0.07568359375,-0.6561279296875,2.0751953125,3.47900390625,-60.72527472527472,23.84029304029304,48.73015873015873
17:26.761,0.65771484375,0.14306640625,2.0791015625,-4.364013671875,87.188720703125,-46.34857177734375,17.242979242979242,24.88986568986569,46.63101343101343,-1.64599609375,-0.7685546875,0.810546875,-8.87298583984375,-1.82342529296875,4.5013427734375,35.68547008547009,-72.72039072039071,90.56312576312575,0.34130859375,2.04833984375,0.08203125,-1.21307373046875,1.251220703125,0.38909912109375,-57.57655677655677,23.690354090354088,48.58021978021978
17:27.540,0.9736328125,-0.15869140625,1.8505859375,-1.861572265625,-162.9180908203125,27.12249755859375,13.344566544566543,22.04102564102564,42.58266178266178,-1.62890625,-0.74267578125,0.7431640625,-1.0223388671875,-3.13568115234375,3.57818603515625,34.336019536019535,-74.81953601953602,93.11208791208792,0.3642578125,2.0419921875,0.08251953125,-0.22125244140625,-0.396728515625,1.18255615234375,-58.92600732600732,24.88986568986569,48.73015873015873
17:28.321,0.9736328125,-0.15869140625,1.8505859375,-1.861572265625,-162.9180908203125,27.12249755859375,9.596092796092796,2.998778998778999,56.377045177045176,-1.61669921875,-0.7587890625,0.73388671875,1.96075439453125,1.59454345703125,0.67901611328125,33.28644688644688,-73.47008547008546,92.66227106227106,0.3408203125,2.0419921875,0.06640625,-1.42669677734375,-1.068115234375,3.99017333984375,-57.72649572649573,23.84029304029304,47.08083028083028
17:29.149,1.86376953125,0.322265625,0.72216796875,26.85546875,1.10626220703125,-10.01739501953125,9.596092796092796,2.998778998778999,56.377045177045176,-1.61669921875,-0.7587890625,0.73388671875,1.96075439453125,1.59454345703125,0.67901611328125,33.43638583638584,-71.82075702075701,91.76263736263736,0.3408203125,2.0419921875,0.06640625,-1.42669677734375,-1.068115234375,3.99017333984375,-58.476190476190474,24.14017094017094,48.73015873015873
17:29.929,1.63818359375,1.0244140625,0.9541015625,33.62274169921875,14.91546630859375,14.7705078125,7.197069597069596,-4.498168498168498,40.63345543345543,-1.63671875,-0.82275390625,0.7373046875,-4.547119140625,-2.09808349609375,0.54168701171875,33.43638583638584,-71.82075702075701,91.76263736263736,0.3369140625,2.0283203125,0.06201171875,-0.96893310546875,5.63812255859375,1.0986328125,-58.476190476190474,24.14017094017094,48.73015873015873
17:30.709,1.359375,0.64892578125,1.26171875,-28.6712646484375,0.14495849609375,-8.392333984375,13.194627594627594,-5.997557997557998,51.279120879120875,-1.625,-0.69384765625,0.80419921875,-11.75689697265625,3.4027099609375,4.00543212890625,34.186080586080585,-73.62002442002442,91.76263736263736,0.31787109375,2.04638671875,0.07958984375,-0.823974609375,0.5035400390625,0.06866455078125,-58.476190476190474,23.09059829059829,48.43028083028083
17:31.538,1.634765625,0.2451171875,1.24658203125,-1.739501953125,-2.34222412109375,-1.65557861328125,5.397802197802197,1.9492063492063492,42.73260073260073,-1.63623046875,-0.728515625,0.7568359375,-2.3193359375,4.6234130859375,-2.1820068359375,33.43638583638584,-72.42051282051281,91.46275946275946,0.31591796875,2.04443359375,0.07470703125,-0.7476806640625,-1.45721435546875,0.87738037109375,-59.67570207570208,23.39047619047619,48.13040293040293
17:32.367,1.634765625,0.2451171875,1.24658203125,-1.739501953125,-2.34222412109375,-1.65557861328125,6.297435897435897,-4.048351648351648,49.62979242979243,-1.63623046875,-0.7900390625,0.740234375,-2.46429443359375,-0.7476806640625,0.48065185546875,33.58632478632479,-72.27057387057387,91.01294261294261,0.3154296875,2.03662109375,0.08837890625,-1.18255615234375,0.1373291015625,3.173828125,-58.77606837606837,23.690354090354088,48.28034188034188
17:33.147,1.314453125,0.96044921875,1.2646484375,36.44561767578125,-15.09857177734375,28.3203125,6.297435897435897,-4.048351648351648,49.62979242979243,-1.63623046875,-0.7900390625,0.740234375,-8.91876220703125,-0.35858154296875,2.74658203125,34.336019536019535,-71.97069597069597,91.01294261294261,0.3154296875,2.03662109375,0.08837890625,-0.93841552734375,0.96893310546875,0.77056884765625,-58.92600732600732,24.14017094017094,48.43028083028083
17:34.024,1.5654296875,0.603515625,1.13525390625,-14.6636962890625,47.4395751953125,-8.50677490234375,12.294993894993894,5.997557997557998,46.63101343101343,-1.6474609375,-0.734375,0.77587890625,-8.91876220703125,-0.35858154296875,2.74658203125,34.336019536019535,-71.97069597069597,91.01294261294261,0.31298828125,2.04296875,0.08544921875,-0.93841552734375,0.96893310546875,0.77056884765625,-57.42661782661782,23.84029304029304,48.73015873015873
17:34.902,1.57373046875,0.31201171875,1.13916015625,-7.43865966796875,19.073486328125,-14.5263671875,4.648107448107448,-0.5997557997557997,47.83052503052503,-1.56982421875,-0.76708984375,0.794921875,1.47247314453125,-1.91497802734375,-0.244140625,32.686691086691084,-71.82075702075701,92.2124542124542,0.3134765625,2.0419921875,0.07373046875,-0.46539306640625,-2.0599365234375,1.0223388671875,-57.42661782661782,23.84029304029304,48.73015873015873
17:35.731,1.60107421875,0.79541015625,1.13720703125,33.34808349609375,5.31005859375,20.44677734375,5.847619047619047,-5.397802197802197,50.37948717948718,-1.6171875,-0.7958984375,0.73583984375,-1.01470947265625,-0.701904296875,-0.9765625,33.88620268620269,-73.76996336996336,93.71184371184371,0.3408203125,2.03369140625,0.07958984375,-0.7781982421875,-0.02288818359375,2.3193359375,-58.92600732600732,24.589987789987788,46.33113553113553
17:36.559,1.51171875,0.794921875,1.18359375,-24.59716796875,-24.3682861328125,-14.404296875,6.597313797313797,1.3494505494505493,50.07960927960928,-1.60302734375,-0.724609375,0.7939453125,-8.41522216796875,-0.3509521484375,4.14276123046875,33.43638583638584,-72.42051282051281,92.5123321123321,0.33154296875,2.04150390625,0.08349609375,-0.18310546875,1.88446044921875,0.11444091796875,-59.67570207570208,24.589987789987788,47.08083028083028
17:37.388,1.51171875,0.794921875,1.18359375,-24.59716796875,-24.3682861328125,-14.404296875,0.5997557997557997,1.3494505494505493,46.93089133089133,-1.662109375,-0.6826171875,0.8095703125,3.7841796875,2.43377685546875,-0.06103515625,32.836630036630034,-72.72039072039071,92.06251526251526,0.30126953125,2.03955078125,0.08935546875,-1.74713134765625,-3.12042236328125,5.8135986328125,-58.176312576312576,24.14017094017094,46.63101343101343
17:38.168,1.6767578125,-0.2919921875,1.30517578125,-3.48663330078125,-4.913330078125,0.45013427734375,0.5997557997557997,1.3494505494505493,46.93089133089133,-1.662109375,-0.6826171875,0.8095703125,3.7841796875,2.43377685546875,-0.06103515625,33.58632478632479,-70.77118437118438,92.36239316239316,0.30126953125,2.03955078125,0.08935546875,-1.74713134765625,-3.12042236328125,5.8135986328125,-57.57655677655677,26.23931623931624,48.28034188034188
17:38.948,1.69384765625,0.59521484375,0.9873046875,22.57537841796875,5.48553466796875,16.25823974609375,10.045909645909646,-3.7484737484737485,53.228327228327224,-1.64501953125,-0.77685546875,0.6875,1.46484375,-3.31878662109375,-0.60272216796875,33.58632478632479,-70.77118437118438,92.36239316239316,0.234375,2.05078125,0.091796875,-0.7781982421875,1.922607421875,-2.7008056640625,-57.57655677655677,26.23931623931624,48.28034188034188
17:39.728,1.47265625,0.681640625,1.228515625,-45.745849609375,1.94549560546875,-35.85052490234375,4.048351648351648,-0.8996336996336995,47.83052503052503,-1.67431640625,-0.7431640625,0.74462890625,-5.31768798828125,-3.23486328125,0.640869140625,35.38559218559219,-73.76996336996336,92.06251526251526,0.2763671875,2.05029296875,0.0732421875,-0.92315673828125,1.4801025390625,-0.03814697265625,-56.227106227106226,26.83907203907204,48.28034188034188
17:40.508,1.47265625,0.681640625,1.228515625,-1.28173828125,4.05120849609375,0.92315673828125,6.597313797313797,1.3494505494505493,52.02881562881563,-1.64892578125,-0.6962890625,0.8505859375,-4.547119140625,0.8087158203125,1.220703125,33.28644688644688,-72.27057387057387,92.06251526251526,0.2724609375,2.05078125,0.0869140625,-0.701904296875,-0.25177001953125,1.71661376953125,-58.326251526251525,25.78949938949939,47.98046398046398
17:41.288,1.8369140625,0.10302734375,1.2265625,-1.28173828125,4.05120849609375,0.92315673828125,6.597313797313797,1.3494505494505493,52.02881562881563,-1.61767578125,-0.69091796875,0.8642578125,0.90789794921875,-1.2054443359375,-1.8463134765625,33.43638583638584,-72.12063492063491,92.5123321123321,0.3095703125,2.04345703125,0.09326171875,-0.93841552734375,2.72369384765625,1.9683837890625,-57.12673992673992,25.639560439560437,48.73015873015873
17:42.068,1.6396484375,0.4853515625,0.9716796875,21.50726318359375,-4.93621826171875,10.2081298828125,5.847619047619047,-4.348229548229548,50.07960927960928,-1.61767578125,-0.69091796875,0.8642578125,0.90789794921875,-1.2054443359375,-1.8463134765625,33.43638583638584,-72.12063492063491,92.5123321123321,0.3095703125,2.04345703125,0.09326171875,-0.93841552734375,2.72369384765625,1.9683837890625,-57.12673992673992,25.639560439560437,48.73015873015873
17:42.848,1.50537109375,0.68994140625,1.15283203125,-19.09637451171875,-28.80859375,-20.82061767578125,5.547741147741148,-1.1995115995115995,48.28034188034188,-1.59765625,-0.71728515625,0.8193359375,-7.2784423828125,-2.03704833984375,1.8768310546875,32.98656898656898,-71.37094017094017,93.86178266178266,0.27685546875,2.0498046875,0.076171875,-0.8087158203125,1.48773193359375,1.18255615234375,-57.72649572649573,26.689133089133087,49.77973137973138
