time,hand_accelerometer_x,hand_accelerometer_y,hand_accelerometer_z,hand_gyroscope_x,hand_gyroscope_y,hand_gyroscope_z,hand_magnetometer_x,hand_magnetometer_y,hand_magnetometer_z,ankle_accelerometer_x,ankle_accelerometer_y,ankle_accelerometer_z,ankle_gyroscope_x,ankle_gyroscope_y,ankle_gyroscope_z,ankle_magnetometer_x,ankle_magnetometer_y,ankle_magnetometer_z,chest_accelerometer_x,chest_accelerometer_y,chest_accelerometer_z,chest_gyroscope_x,chest_gyroscope_y,chest_gyroscope_z,chest_magnetometer_x,chest_magnetometer_y,chest_magnetometer_z
24:20.268,1.47705078125,-0.4970703125,-1.3818359375,-3.8909912109375,5.9967041015625,-1.28936767578125,26.83907203907204,-26.23931623931624,-44.83174603174603,-1.5869140625,-0.30810546875,1.08740234375,-4.364013671875,-2.86865234375,1.65557861328125,21.44126984126984,-52.628571428571426,83.66593406593407,0.3974609375,2.03173828125,0.07763671875,-2.40325927734375,0.48828125,1.35040283203125,-110.05518925518925,-14.843956043956043,9.746031746031745
24:21.048,1.48291015625,-0.390625,-1.38427734375,-18.62335205078125,6.66046142578125,-2.13623046875,25.78949938949939,-25.18974358974359,-45.88131868131868,-1.70166015625,-0.302734375,0.97216796875,0.8392333984375,13.6871337890625,-17.120361328125,24.589987789987788,-53.228327228327224,89.21367521367522,0.0283203125,2.099609375,-0.1875,46.051025390625,-27.00042724609375,-42.6177978515625,-109.75531135531135,-14.843956043956043,12.894749694749695
24:21.926,1.6181640625,-0.2255859375,-1.23828125,33.40911865234375,-6.988525390625,-21.3470458984375,17.242979242979242,-26.08937728937729,-51.87887667887668,-1.544921875,-0.61328125,1.005859375,-28.73992919921875,-10.68115234375,29.5867919921875,24.14017094017094,-52.47863247863248,81.86666666666666,-0.04931640625,2.361328125,0.05517578125,48.33984375,51.52130126953125,27.0233154296875,-120.70085470085469,-2.0991452991452992,-17.992673992673993
24:22.706,1.6181640625,-0.2255859375,-1.23828125,33.40911865234375,-6.988525390625,-21.3470458984375,27.13894993894994,-22.19096459096459,-26.98901098901099,-1.802734375,-0.31201171875,0.9580078125,28.17535400390625,-3.08990478515625,-22.98736572265625,19.042246642246642,-57.57655677655677,82.16654456654456,0.2978515625,2.4873046875,-0.75537109375,140.289306640625,-92.0867919921875,-2.99072265625,-53.228327228327224,-0.5997557997557997,78.56800976800976
24:23.535,1.5390625,-0.4091796875,-1.4306640625,-19.8516845703125,19.3939208984375,24.10888671875,27.13894993894994,-22.19096459096459,-26.98901098901099,-1.93408203125,-0.6083984375,1.08642578125,32.26470947265625,-17.63153076171875,-6.866455078125,8.396581196581197,-61.47496947496947,67.17264957264958,0.61376953125,1.9287109375,0.25537109375,21.90399169921875,-59.1278076171875,-0.823974609375,-80.51721611721611,1.3494505494505493,7.197069597069596
24:24.461,2.02880859375,-0.259765625,-1.326171875,-34.4390869140625,4.6234130859375,34.97314453125,28.338461538461537,-13.494505494505495,-27.13894993894994,-1.93408203125,-0.6083984375,1.08642578125,32.26470947265625,-17.63153076171875,-6.866455078125,5.547741147741148,-65.52332112332113,64.47374847374847,0.61376953125,1.9287109375,0.25537109375,21.90399169921875,-59.1278076171875,-0.823974609375,-36.285225885225884,-2.848840048840049,71.67081807081807
24:25.338,1.8330078125,-0.28857421875,-1.17626953125,6.3629150390625,58.69293212890625,-21.8505859375,30.587545787545785,-10.345787545787545,-19.49206349206349,-1.5830078125,-0.28857421875,0.716796875,-19.40155029296875,-40.38238525390625,-16.91436767578125,1.799267399267399,-63.57411477411477,54.427838827838826,-0.1220703125,1.333984375,-0.68896484375,4.608154296875,-24.47509765625,-48.76708984375,-48.28034188034188,-3.8984126984126983,2.249084249084249
24:26.216,2.2529296875,-0.1376953125,-1.42431640625,24.383544921875,-6.53839111328125,-3.94439697265625,22.34090354090354,-7.347008547008547,-35.38559218559219,-1.8310546875,-0.57177734375,1.06640625,5.462646484375,-20.233154296875,27.9998779296875,1.799267399267399,-63.57411477411477,54.427838827838826,0.3525390625,2.015625,0.28369140625,29.11376953125,-27.65655517578125,-0.9002685546875,-48.28034188034188,-3.8984126984126983,2.249084249084249
24:27.045,1.59033203125,-0.1953125,-0.79931640625,-3.143310546875,27.48870849609375,9.25445556640625,30.137728937728937,-14.843956043956043,-5.697680097680098,-1.501953125,-0.4150390625,0.7900390625,3.18145751953125,-12.90130615234375,-0.08392333984375,10.795604395604395,-70.17142857142856,73.32014652014652,-0.06787109375,1.3564453125,0.02734375,-128.631591796875,-76.5380859375,38.44451904296875,-81.56678876678876,3.598534798534798,-19.941880341880342
24:28.263,1.5634765625,-0.212890625,-1.158203125,15.67840576171875,-6.05010986328125,-1.96075439453125,31.637118437118435,-11.095482295482295,-9.596092796092796,-1.62939453125,-0.404296875,0.83056640625,-5.80596923828125,-13.69476318359375,-2.2125244140625,4.498168498168498,-69.57167277167277,64.47374847374847,0.25341796875,2.07861328125,0.1943359375,39.947509765625,17.05169677734375,-4.57000732421875,-81.56678876678876,3.598534798534798,-19.941880341880342
24:29.190,1.6015625,-0.40234375,-0.9912109375,10.4827880859375,10.8642578125,3.44085693359375,30.437606837606836,-10.645665445665445,-2.998778998778999,-1.5078125,-0.4423828125,0.943359375,-2.69317626953125,-20.7672119140625,3.6163330078125,9.746031746031745,-74.81953601953602,72.72039072039071,0.18896484375,1.56396484375,-0.52490234375,67.72613525390625,-57.9833984375,8.94927978515625,-24.14017094017094,-12.894749694749695,89.51355311355312
24:30.116,1.90576171875,-0.20361328125,-1.20263671875,71.35772705078125,-3.51715087890625,-47.55401611328125,28.188522588522588,-10.345787545787545,-10.345787545787545,-1.67138671875,-0.7080078125,1.1796875,-66.7877197265625,-34.0576171875,42.0989990234375,7.197069597069596,-73.02026862026862,65.97313797313797,-0.06298828125,2.10791015625,-0.107421875,0.3509521484375,27.069091796875,34.8358154296875,-43.93211233211233,-12.145054945054945,24.14017094017094
24:31.140,1.64013671875,-0.34423828125,-1.23193359375,50.66680908203125,-6.561279296875,-38.055419921875,11.845177045177044,-14.694017094017093,-7.946764346764346,-1.689453125,-0.39892578125,0.96533203125,-56.915283203125,-21.29364013671875,31.30340576171875,24.739926739926737,-77.21855921855922,73.17020757020757,-0.1357421875,2.09765625,-0.29248046875,45.0439453125,-8.75091552734375,-46.9512939453125,-35.985347985347985,30.437606837606836,86.66471306471306
24:32.017,1.81005859375,-0.302734375,-0.93994140625,24.42169189453125,-8.09478759765625,-19.53887939453125,-1.6493284493284492,-11.245421245421245,-31.637118437118435,-1.53271484375,-0.541015625,1.0869140625,-32.8521728515625,0.1678466796875,21.05712890625,29.83785103785104,-69.87155067155066,57.72649572649573,0.3212890625,1.88818359375,0.37060546875,31.08978271484375,-23.895263671875,32.623291015625,-38.98412698412698,35.68547008547009,80.96703296703296
24:32.846,1.6640625,-0.62451171875,-1.17578125,-17.58575439453125,13.8092041015625,14.57977294921875,-5.847619047619047,-8.396581196581197,-38.084493284493284,-1.92529296875,-0.36279296875,1.13916015625,27.18353271484375,-7.39288330078125,-16.082763671875,24.88986568986569,-66.42295482295482,44.53186813186813,-0.01318359375,1.75390625,-0.98388671875,102.6458740234375,-192.8253173828125,19.00482177734375,-0.29987789987789987,56.97680097680097,33.28644688644688
24:33.675,1.6640625,-0.62451171875,-1.17578125,-17.58575439453125,13.8092041015625,14.57977294921875,-8.396581196581197,-8.396581196581197,-40.18363858363858,-1.60498046875,-0.52490234375,0.9619140625,-21.881103515625,-13.275146484375,11.78741455078125,27.438827838827837,-66.42295482295482,44.98168498168498,0.3076171875,2.0419921875,0.15625,34.72900390625,8.2855224609375,14.06097412109375,8.996336996336996,53.52820512820512,68.67203907203907
24:34.650,1.701171875,-0.37060546875,-1.19580078125,29.28924560546875,-1.5106201171875,-18.11981201171875,-10.195848595848595,-9.895970695970696,-45.28156288156288,-1.5224609375,-0.404296875,0.8447265625,14.2669677734375,-8.9569091796875,-4.302978515625,26.539194139194137,-63.724053724053725,45.13162393162393,0.01416015625,1.1552734375,0.203125,-59.9517822265625,43.06793212890625,57.39593505859375,-69.57167277167277,32.686691086691084,-32.686691086691084
24:35.479,1.58837890625,-0.49609375,-0.962890625,-6.08062744140625,8.941650390625,19.11163330078125,-10.195848595848595,-9.895970695970696,-45.28156288156288,-1.5224609375,-0.404296875,0.8447265625,35.66741943359375,12.04681396484375,-11.566162109375,32.386813186813185,-64.47374847374847,56.676923076923075,0.01416015625,1.1552734375,0.203125,13.99993896484375,-51.9256591796875,-2.20489501953125,-46.18119658119658,41.98290598290598,-5.997557997557998
24:36.356,1.67724609375,-0.3125,-1.1201171875,-33.14208984375,6.17218017578125,26.092529296875,-7.796825396825397,-15.743589743589743,-40.33357753357753,-1.55859375,-0.46337890625,0.8251953125,35.66741943359375,12.04681396484375,-11.566162109375,30.287667887667887,-63.57411477411477,56.227106227106226,0.47705078125,1.98388671875,0.2978515625,1.5869140625,-6.34002685546875,-6.76727294921875,-33.73626373626374,38.084493284493284,43.03247863247863
24:37.331,1.650390625,-0.43408203125,-1.2744140625,41.4581298828125,13.92364501953125,-17.3797607421875,-2.848840048840049,-14.244200244200243,-35.835409035409036,-1.7294921875,-0.357421875,0.84130859375,-28.99932861328125,-30.54046630859375,6.56890869140625,33.58632478632479,-67.47252747252747,64.92356532356533,-0.12548828125,1.099609375,0.70458984375,1.5869140625,-6.34002685546875,-6.76727294921875,-30.437606837606836,42.58266178266178,29.537973137973136
24:38.160,1.669921875,-0.4619140625,-1.0712890625,22.8424072265625,6.2408447265625,-7.65228271484375,1.1995115995115995,-17.992673992673993,-24.14017094017094,-1.66259765625,-0.4482421875,0.89453125,-10.29205322265625,-11.45172119140625,4.47845458984375,33.58632478632479,-67.47252747252747,64.92356532356533,0.06689453125,2.1689453125,0.033203125,37.54425048828125,4.17327880859375,0.43487548828125,-30.437606837606836,42.58266178266178,29.537973137973136
24:38.988,1.56591796875,-1.169921875,-0.32421875,-52.31475830078125,49.7589111328125,32.5927734375,-3.4485958485958483,-15.593650793650793,-35.38559218559219,-1.4609375,-0.5517578125,0.755859375,45.66192626953125,30.37261962890625,-30.3955078125,31.037362637362637,-64.62368742368741,56.826862026862024,-0.2958984375,1.583984375,-0.7109375,126.6632080078125,28.92303466796875,-3.16619873046875,-54.877655677655675,31.037362637362637,-8.396581196581197
24:39.964,1.8515625,-0.93408203125,-0.7373046875,29.07562255859375,-21.84295654296875,-4.150390625,12.444932844932845,-22.34090354090354,-9.446153846153846,-1.7431640625,-0.4658203125,1.04443359375,-21.575927734375,-22.30072021484375,35.7818603515625,37.33479853479853,-67.02271062271062,69.72161172161172,0.203125,2.099609375,0.20068359375,35.91156005859375,10.1776123046875,8.49151611328125,-27.438827838827837,46.63101343101343,12.145054945054945
24:40.841,1.60400390625,-0.82470703125,-0.9658203125,-74.4171142578125,24.74212646484375,43.20526123046875,8.396581196581197,-27.13894993894994,-34.485958485958484,-1.51806640625,-0.2685546875,1.07470703125,73.75335693359375,14.94598388671875,-39.81781005859375,32.386813186813185,-55.62735042735043,62.67448107448107,0.19873046875,1.96533203125,-0.7275390625,57.91473388671875,-45.7305908203125,4.93621826171875,-82.91623931623931,40.93333333333333,-31.337240537240536
24:41.767,1.60400390625,-0.82470703125,-0.9658203125,-90.8203125,25.55084228515625,47.0733642578125,5.547741147741148,-34.186080586080585,-44.38192918192918,-1.6123046875,-0.74462890625,0.9111328125,80.84869384765625,35.57586669921875,-52.6580810546875,34.186080586080585,-52.32869352869353,79.46764346764347,0.052734375,2.322265625,0.14892578125,-37.353515625,34.5458984375,31.13555908203125,-55.32747252747252,49.479853479853475,-39.583882783882785
24:42.547,1.869140625,-0.3916015625,-0.9375,-90.8203125,25.55084228515625,47.0733642578125,5.547741147741148,-34.186080586080585,-44.38192918192918,-1.6123046875,-0.74462890625,0.9111328125,26.397705078125,12.4969482421875,-12.85552978515625,40.93333333333333,-52.32869352869353,91.76263736263736,0.052734375,2.322265625,0.14892578125,62.4847412109375,-21.70562744140625,-25.3143310546875,-110.5050061050061,4.947985347985348,22.94065934065934
24:43.376,1.5673828125,-0.646484375,-1.13671875,-29.13665771484375,3.76129150390625,14.96124267578125,15.893528693528692,-37.33479853479853,-24.44004884004884,-1.7216796875,-0.25732421875,0.796875,26.397705078125,12.4969482421875,-12.85552978515625,24.29010989010989,-52.02881562881563,77.36849816849816,-0.0693359375,2.32666015625,-0.47705078125,62.4847412109375,-21.70562744140625,-25.3143310546875,-118.45177045177044,4.947985347985348,-5.997557997557998
24:44.156,1.87158203125,-0.3291015625,-0.97998046875,1.3275146484375,-7.659912109375,-4.46319580078125,24.589987789987788,-30.737484737484735,-29.088156288156288,-1.57177734375,-0.86962890625,0.99462890625,-7.232666015625,1.93023681640625,4.08172607421875,24.29010989010989,-52.02881562881563,77.36849816849816,-0.75732421875,2.54345703125,0.3603515625,27.96173095703125,-63.48419189453125,36.6973876953125,-118.45177045177044,4.947985347985348,-5.997557997557998
24:45.033,1.6923828125,-0.70947265625,-0.935546875,-48.858642578125,20.10345458984375,20.97320556640625,30.587545787545785,-21.44126984126984,-16.043467643467643,-1.64111328125,-0.25048828125,0.9912109375,48.85101318359375,9.002685546875,-31.1737060546875,19.34212454212454,-57.42661782661782,79.91746031746031,-0.044921875,2.25830078125,-0.498046875,80.66558837890625,-35.34698486328125,-9.9639892578125,-45.73137973137973,-1.3494505494505493,77.21855921855922
24:45.813,1.8232421875,-0.3896484375,-1.07177734375,29.72412109375,-22.17864990234375,-5.4168701171875,31.487179487179485,-16.64322344322344,-16.193406593406593,-1.59130859375,-0.666015625,1.0068359375,-38.74969482421875,-8.44573974609375,26.37481689453125,6.447374847374848,-58.77606837606837,60.425396825396824,0.21533203125,1.98291015625,0.62548828125,56.7779541015625,-10.12420654296875,13.29803466796875,-72.57045177045177,2.848840048840049,31.337240537240536
24:46.691,1.8232421875,-0.3896484375,-1.07177734375,29.72412109375,-22.17864990234375,-5.4168701171875,24.88986568986569,-10.795604395604395,-25.639560439560437,-2.138671875,-0.5693359375,1.20166015625,43.51806640625,-0.4119873046875,-21.03424072265625,3.8984126984126983,-63.873992673992674,57.87643467643468,0.36328125,1.73779296875,-0.8994140625,88.9892578125,-77.6824951171875,1.6937255859375,-33.13650793650793,-11.845177045177044,59.07594627594627
24:47.568,1.833984375,-0.658203125,-1.1396484375,-27.9541015625,20.89691162109375,18.2952880859375,30.137728937728937,-11.245421245421245,-23.39047619047619,-1.51318359375,-0.40087890625,0.85693359375,-7.049560546875,-12.33673095703125,9.37652587890625,2.6989010989010986,-63.724053724053725,55.92722832722833,0.18017578125,2.1474609375,0.10107421875,43.44940185546875,-6.256103515625,6.29425048828125,-46.18119658119658,0.0,11.095482295482295
24:48.544,1.47998046875,-0.19189453125,-1.03515625,10.8795166015625,-0.946044921875,-10.24627685546875,32.536752136752135,-9.146275946275946,-4.348229548229548,-1.64111328125,-0.72705078125,0.96728515625,-16.876220703125,-6.56890869140625,8.453369140625,7.197069597069596,-70.77118437118438,70.62124542124542,0.0380859375,2.607421875,-0.94677734375,-203.37677001953125,94.2535400390625,50.2471923828125,-87.41440781440781,-0.7496947496947497,28.93821733821734
24:49.763,1.6279296875,-0.1494140625,-1.18896484375,-20.3094482421875,8.30841064453125,5.584716796875,31.936996336996337,-7.496947496947497,-6.147496947496947,-1.69384765625,-0.4169921875,0.9052734375,2.5177001953125,15.99884033203125,-9.59014892578125,2.998778998778999,-71.37094017094017,62.67448107448107,0.33154296875,2.04541015625,0.13134765625,26.11541748046875,17.32635498046875,1.5869140625,-56.676923076923075,-12.744810744810744,35.835409035409036
24:51.030,1.8408203125,-0.3349609375,-1.1123046875,-32.40966796875,14.34326171875,27.0843505859375,27.588766788766787,-9.146275946275946,2.848840048840049,-1.57177734375,-0.53369140625,0.99658203125,29.64019775390625,8.27789306640625,-21.03424072265625,11.095482295482295,-77.06862026862026,71.67081807081807,-0.03759765625,1.49755859375,-1.11083984375,27.61077880859375,-196.55609130859375,67.535400390625,-15.443711843711844,-15.443711843711844,79.31770451770451
24:51.810,1.6435546875,-0.19677734375,-1.056640625,-46.47064208984375,8.53729248046875,48.86627197265625,25.639560439560437,-6.147496947496947,-15.743589743589743,-1.5498046875,-0.744140625,0.83203125,59.1583251953125,10.528564453125,-23.25439453125,4.798046398046398,-69.87155067155066,58.026373626373626,0.048828125,2.4560546875,0.49267578125,-21.3775634765625,10.19287109375,34.98077392578125,-25.18974358974359,-10.045909645909646,14.694017094017093
24:52.639,1.6435546875,-0.19677734375,-1.056640625,-46.47064208984375,8.53729248046875,48.86627197265625,2.548962148962149,-2.6989010989010986,-40.18363858363858,-1.64404296875,-0.41455078125,1.0537109375,31.82220458984375,-0.6256103515625,-11.54327392578125,11.095482295482295,-64.92356532356533,40.63345543345543,0.03466796875,2.26513671875,-0.41015625,102.1728515625,-87.066650390625,10.55908203125,-23.09059829059829,50.979242979242976,15.593650793650793
24:53.516,1.689453125,-0.54052734375,-1.14208984375,-21.6217041015625,12.7410888671875,27.9388427734375,2.548962148962149,-2.6989010989010986,-40.18363858363858,-1.69775390625,-0.55322265625,1.1640625,-30.181884765625,-13.4124755859375,27.01568603515625,25.489621489621488,-67.02271062271062,46.18119658119658,0.412109375,1.94677734375,0.38525390625,48.37799072265625,53.10821533203125,26.7333984375,-14.394139194139193,53.97802197802198,48.58021978021978
24:54.589,1.88818359375,-0.43603515625,-1.01171875,27.67181396484375,-12.70294189453125,-11.6119384765625,-7.197069597069596,-8.546520146520146,-36.135286935286935,-1.76708984375,-0.47900390625,1.17529296875,21.01898193359375,-25.20751953125,-12.6495361328125,26.23931623931624,-66.27301587301586,43.03247863247863,0.55419921875,1.3876953125,0.11181640625,34.58404541015625,-62.12615966796875,32.40966796875,-59.22588522588522,36.435164835164834,-36.435164835164834
24:55.466,1.75341796875,-0.57763671875,-1.43994140625,-28.55682373046875,2.90679931640625,15.07568359375,-10.195848595848595,-9.895970695970696,-40.18363858363858,-1.76708984375,-0.47900390625,1.17529296875,7.415771484375,-10.10894775390625,4.791259765625,29.388034188034187,-64.77362637362637,51.72893772893773,0.55419921875,1.3876953125,0.11181640625,44.921875,1.9989013671875,-2.46429443359375,-24.14017094017094,51.129181929181925,2.548962148962149
24:56.393,1.3525390625,-0.10693359375,-1.072265625,15.83099365234375,7.568359375,13.275146484375,-9.895970695970696,-11.395360195360196,-43.63223443223443,-1.41015625,-0.34716796875,0.69873046875,7.415771484375,-10.10894775390625,4.791259765625,28.03858363858364,-62.224664224664224,52.778510378510376,0.37841796875,2.05859375,0.1484375,44.921875,1.9989013671875,-2.46429443359375,-42.58266178266178,29.987789987789988,32.386813186813185
24:57.173,1.4287109375,-0.296875,-1.10693359375,-0.518798828125,4.41741943359375,7.17926025390625,-6.897191697191697,-12.294993894993894,-45.28156288156288,-1.640625,-0.578125,0.9365234375,-6.72149658203125,8.35418701171875,-1.54876708984375,28.03858363858364,-62.224664224664224,52.778510378510376,0.39501953125,2.66015625,-1.00732421875,-224.63226318359375,159.64508056640625,15.23590087890625,-42.58266178266178,29.987789987789988,32.386813186813185
24:58.001,1.71337890625,-0.30126953125,-1.19287109375,-13.3209228515625,28.35845947265625,35.36224365234375,-1.799267399267399,-19.64200244200244,-21.59120879120879,-1.67724609375,-0.40576171875,0.96044921875,22.22442626953125,21.29364013671875,-14.35089111328125,34.78583638583638,-68.52210012210011,71.07106227106227,0.34326171875,1.99658203125,0.04638671875,36.29302978515625,20.04241943359375,-16.28875732421875,-32.836630036630034,45.58144078144078,28.188522588522588
24:58.927,1.859375,-0.736328125,-0.888671875,26.0162353515625,-53.8330078125,-45.76873779296875,-4.1982905982905985,-15.893528693528692,-35.08571428571428,-1.73828125,-0.728515625,0.8671875,-61.95068359375,-26.6876220703125,30.3955078125,29.088156288156288,-63.724053724053725,58.026373626373626,-0.044921875,1.29150390625,-0.50634765625,-196.96044921875,39.13116455078125,12.4664306640625,-55.77728937728938,36.73504273504273,1.1995115995115995
24:59.707,1.859375,-0.736328125,-0.888671875,-9.246826171875,-13.32855224609375,-5.4779052734375,14.394139194139193,-24.29010989010989,-15.443711843711844,-1.642578125,-0.3544921875,0.86181640625,-4.913330078125,6.7291259765625,-5.22613525390625,37.33479853479853,-62.97435897435897,67.62246642246642,0.40234375,2.01904296875,-0.0966796875,32.98187255859375,1.8157958984375,2.29644775390625,-44.68180708180708,48.58021978021978,-8.246642246642246
25:00.682,1.3564453125,-0.43408203125,-1.287109375,-9.246826171875,-13.32855224609375,-5.4779052734375,3.7484737484737485,-20.69157509157509,-74.06984126984126,-1.44384765625,-0.583984375,0.9462890625,-65.94085693359375,-17.98248291015625,40.87066650390625,30.287667887667887,-49.179975579975576,67.77240537240537,0.48291015625,1.986328125,-0.93505859375,-64.70489501953125,249.99237060546875,-32.55462646484375,-66.87277167277168,33.28644688644688,-52.02881562881563
25:01.462,1.47314453125,-0.591796875,-1.1240234375,55.17578125,-19.85931396484375,-45.11260986328125,3.7484737484737485,-20.69157509157509,-74.06984126984126,-1.44384765625,-0.583984375,0.9462890625,-65.94085693359375,-17.98248291015625,40.87066650390625,19.791941391941393,-48.13040293040293,84.56556776556776,0.48291015625,1.986328125,-0.93505859375,12.67242431640625,6.62994384765625,-16.38031005859375,-96.1108669108669,36.135286935286935,-13.644444444444444
25:02.340,1.4248046875,-0.43017578125,-1.435546875,64.727783203125,-28.49578857421875,-62.62969970703125,33.88620268620269,-26.539194139194137,-45.88131868131868,-1.7646484375,-0.3212890625,0.76806640625,-88.0126953125,-16.2200927734375,42.8009033203125,19.791941391941393,-48.13040293040293,84.56556776556776,0.08642578125,2.04736328125,-0.06103515625,12.67242431640625,6.62994384765625,-16.38031005859375,-96.1108669108669,36.135286935286935,-13.644444444444444
25:03.121,1.51806640625,-0.41650390625,-1.21044921875,51.788330078125,-28.7322998046875,-61.1419677734375,28.488400488400487,-45.58144078144078,-30.737484737484735,-1.56787109375,-0.6005859375,0.98779296875,-76.42364501953125,-14.73236083984375,40.48919677734375,41.38315018315018,-50.52942612942613,109.75531135531135,-0.41845703125,2.3828125,1.18115234375,64.6209716796875,93.75762939453125,22.796630859375,-98.21001221001221,17.992673992673993,-20.39169719169719
25:03.949,1.544921875,-0.388671875,-1.44384765625,-28.80859375,-0.732421875,25.07781982421875,13.794383394383393,-36.58510378510378,-43.482295482295484,-1.79345703125,-0.40283203125,0.90234375,36.41510009765625,3.33404541015625,-20.8282470703125,40.63345543345543,-50.52942612942613,101.95848595848595,0.24169921875,1.61865234375,-1.57275390625,122.7569580078125,-216.20941162109375,13.89312744140625,-74.21978021978022,5.247863247863248,83.51599511599511
25:04.778,1.544921875,-0.388671875,-1.44384765625,-21.62933349609375,9.22393798828125,28.5491943359375,28.488400488400487,-25.33968253968254,-25.93943833943834,-1.7451171875,-0.5927734375,0.9697265625,33.62274169921875,14.41192626953125,-11.40594482421875,23.99023199023199,-54.877655677655675,86.96459096459097,0.2412109375,2.05810546875,-0.3203125,44.92950439453125,-3.662109375,3.21197509765625,-102.55824175824175,7.946764346764346,10.045909645909646
25:05.607,1.4384765625,-0.12744140625,-1.52783203125,-21.62933349609375,9.22393798828125,28.5491943359375,28.488400488400487,-25.33968253968254,-25.93943833943834,-1.4970703125,-0.61328125,0.93505859375,-47.82867431640625,-1.6632080078125,28.0609130859375,11.695238095238095,-60.72527472527472,68.97191697191697,-1.728515625,2.474609375,-0.49072265625,37.8875732421875,-31.18896484375,-4.1351318359375,-67.92234432234432,-1.1995115995115995,42.88253968253968
25:06.386,1.53857421875,-0.4208984375,-1.142578125,19.3939208984375,-11.0931396484375,-16.6473388671875,31.637118437118435,-13.644444444444444,-26.98901098901099,-1.4970703125,-0.61328125,0.93505859375,-47.82867431640625,-1.6632080078125,28.0609130859375,5.847619047619047,-64.77362637362637,62.67448107448107,-1.728515625,2.474609375,-0.49072265625,37.8875732421875,-31.18896484375,-4.1351318359375,-31.037362637362637,-9.146275946275946,67.32258852258852
25:07.167,1.7158203125,-0.630859375,-1.3837890625,4.1046142578125,22.88818359375,3.9520263671875,31.337240537240536,-8.246642246642246,-22.19096459096459,-1.97705078125,-0.314453125,1.1640625,11.7950439453125,-22.52197265625,-10.45989990234375,5.847619047619047,-64.77362637362637,62.67448107448107,-0.0927734375,1.4423828125,0.44482421875,29.91485595703125,-5.7373046875,31.524658203125,-44.83174603174603,1.3494505494505493,7.646886446886446
25:08.385,1.326171875,-0.2900390625,-1.41796875,-0.732421875,3.2958984375,-5.37872314453125,28.188522588522588,-6.147496947496947,-29.088156288156288,-1.63232421875,-0.41064453125,0.8046875,-43.9453125,-9.82666015625,27.557373046875,9.895970695970696,-72.87032967032967,74.96947496947497,0.20068359375,2.13134765625,0.09033203125,-199.59259033203125,-17.9901123046875,48.69842529296875,-82.46642246642246,1.4993894993894994,43.03247863247863
25:09.409,1.71240234375,-0.34033203125,-0.9931640625,24.9481201171875,-21.79718017578125,-32.318115234375,35.23565323565323,-12.145054945054945,-0.4498168498168498,-1.5546875,-0.57763671875,0.88623046875,-43.9453125,-9.82666015625,27.557373046875,8.246642246642246,-74.51965811965812,67.02271062271062,-0.35546875,2.63720703125,-1.18115234375,32.35626220703125,-28.9306640625,-1.25885009765625,-20.09181929181929,-17.242979242979242,73.02026862026862
25:10.628,1.48681640625,-0.38037109375,-1.5595703125,-113.42620849609375,21.67510986328125,75.592041015625,29.83785103785104,-8.246642246642246,-6.147496947496947,-1.58544921875,-0.751953125,0.8173828125,74.6612548828125,42.42706298828125,-46.79107666015625,8.996336996336996,-74.81953601953602,64.92356532356533,0.03466796875,1.75,-0.689453125,-24.68109130859375,-178.436279296875,20.965576171875,-14.544078144078144,-18.892307692307693,46.03125763125763
25:11.456,1.6044921875,-0.34521484375,-1.15087890625,-92.90313720703125,15.3045654296875,62.8814697265625,29.83785103785104,-8.246642246642246,-6.147496947496947,-1.58544921875,-0.751953125,0.8173828125,25.3448486328125,17.38739013671875,-16.693115234375,8.546520146520146,-63.57411477411477,35.835409035409036,0.03466796875,1.75,-0.689453125,79.29229736328125,-15.34271240234375,-1.5106201171875,-29.537973137973136,51.87887667887668,14.094261294261294
25:12.285,1.5556640625,-0.603515625,-1.2978515625,-40.51971435546875,8.81195068359375,22.9949951171875,3.2986568986568985,-0.8996336996336995,-43.18241758241758,-1.60498046875,-0.37939453125,0.93994140625,25.3448486328125,17.38739013671875,-16.693115234375,23.24053724053724,-67.02271062271062,41.533089133089135,0.27685546875,2.23291015625,-0.564453125,79.29229736328125,-15.34271240234375,-1.5106201171875,-21.741147741147742,57.87643467643468,26.389255189255188
25:13.162,1.8515625,-0.58642578125,-1.48779296875,38.04779052734375,-32.43255615234375,-43.23577880859375,-9.746031746031745,-6.597313797313797,-40.18363858363858,-1.77880859375,-0.767578125,1.03564453125,-46.3714599609375,-6.7596435546875,28.55682373046875,23.24053724053724,-67.02271062271062,41.533089133089135,0.66455078125,1.97802734375,0.3994140625,66.21551513671875,4.18853759765625,30.8074951171875,-21.741147741147742,57.87643467643468,26.389255189255188
25:13.991,1.5869140625,-0.33837890625,-1.21435546875,-9.1552734375,15.49530029296875,31.16607666015625,-14.843956043956043,-9.296214896214895,-43.63223443223443,-1.37841796875,-0.431640625,0.84033203125,21.209716796875,-16.36505126953125,-14.1143798828125,27.738705738705736,-65.67326007326007,44.23199023199023,-0.2158203125,1.4130859375,0.07177734375,-161.06414794921875,21.2860107421875,61.2030029296875,-73.32014652014652,37.934554334554335,-39.583882783882785
25:14.771,1.5869140625,-0.33837890625,-1.21435546875,-48.980712890625,9.77325439453125,20.2789306640625,-12.444932844932845,-12.594871794871795,-44.08205128205128,-1.83984375,-0.484375,0.8349609375,31.48651123046875,32.02056884765625,-23.74267578125,31.936996336996337,-66.57289377289376,54.877655677655675,0.3203125,2.025390625,-0.00048828125,48.5076904296875,11.58905029296875,1.5411376953125,-52.32869352869353,43.78217338217338,-12.594871794871795
25:15.551,1.3935546875,-0.22705078125,-1.4326171875,-48.980712890625,9.77325439453125,20.2789306640625,-12.444932844932845,-12.594871794871795,-44.08205128205128,-1.55517578125,-0.638671875,0.8603515625,-69.8394775390625,-11.7645263671875,31.59332275390625,30.887423687423688,-66.27301587301586,55.62735042735043,-0.22900390625,1.68798828125,-1.0830078125,-25.93231201171875,-57.0526123046875,27.16827392578125,-32.536752136752135,31.037362637362637,31.337240537240536
25:16.380,1.6767578125,-0.31396484375,-1.0224609375,53.44390869140625,-18.56231689453125,-60.2569580078125,-5.397802197802197,-16.793162393162394,-35.23565323565323,-1.55517578125,-0.638671875,0.8603515625,-69.8394775390625,-11.7645263671875,31.59332275390625,34.336019536019535,-64.92356532356533,60.72527472527472,-0.22900390625,1.68798828125,-1.0830078125,91.30859375,-31.4178466796875,-0.6103515625,-63.27423687423687,34.635897435897434,2.6989010989010986
25:17.355,1.48681640625,-0.4892578125,-1.51123046875,-48.75946044921875,-18.8751220703125,37.9180908203125,-8.846398046398047,-18.29255189255189,-34.485958485958484,-1.7236328125,-0.228515625,0.7216796875,63.22479248046875,25.10833740234375,-38.52081298828125,34.635897435897434,-60.87521367521367,65.67326007326007,0.17041015625,2.43212890625,-0.46630859375,91.30859375,-31.4178466796875,-0.6103515625,-40.78339438339438,34.635897435897434,-9.146275946275946
25:18.184,1.97705078125,-0.00341796875,-1.265625,50.1708984375,108.95538330078125,-32.49359130859375,-9.596092796092796,-20.69157509157509,-46.78095238095238,-1.64013671875,-0.677734375,1.0595703125,-55.48858642578125,-11.505126953125,30.8990478515625,34.635897435897434,-60.87521367521367,65.67326007326007,0.15087890625,2.19091796875,0.1611328125,64.2547607421875,78.83453369140625,24.07073974609375,-40.78339438339438,34.635897435897434,-9.146275946275946
25:19.012,2.173828125,-0.1728515625,-0.68701171875,-0.77056884765625,109.73358154296875,13.55743408203125,-19.791941391941393,-27.438827838827837,-65.22344322344323,-1.59423828125,-0.44775390625,0.77978515625,10.8642578125,-24.566650390625,-8.84246826171875,32.686691086691084,-50.52942612942613,65.52332112332113,-0.669921875,1.21044921875,0.43017578125,-43.0145263671875,-143.3258056640625,-15.93780517578125,-86.51477411477411,30.887423687423688,-51.279120879120875
25:20.036,1.62060546875,-0.08056640625,-0.89990234375,76.0650634765625,-51.27716064453125,-46.6766357421875,3.7484737484737485,-39.28400488400488,-63.12429792429792,-1.728515625,-0.29150390625,0.73486328125,-88.17291259765625,-10.040283203125,45.83740234375,19.941880341880342,-44.68180708180708,72.42051282051281,0.2216796875,1.97412109375,0.1689453125,-5.2032470703125,30.8837890625,10.09368896484375,-41.38315018315018,35.985347985347985,-33.73626373626374
25:20.865,2.03369140625,-0.00927734375,-0.55029296875,71.32720947265625,15.63262939453125,-19.6685791015625,34.635897435897434,-48.73015873015873,-20.99145299145299,-1.77099609375,-0.63720703125,1.0107421875,-69.37408447265625,-15.73944091796875,26.63421630859375,25.18974358974359,-52.928449328449325,112.0043956043956,0.2353515625,2.54052734375,-0.53369140625,-189.27001953125,182.94525146484375,41.0919189453125,-87.71428571428571,23.09059829059829,-1.4993894993894994
25:21.645,2.03369140625,-0.00927734375,-0.55029296875,71.32720947265625,15.63262939453125,-19.6685791015625,5.847619047619047,-49.179975579975576,-5.847619047619047,-1.744140625,-0.3076171875,0.810546875,39.1082763671875,22.0794677734375,-15.92254638671875,43.482295482295484,-51.279120879120875,105.55702075702075,0.14453125,2.3046875,-0.451171875,84.55657958984375,-19.53125,0.19073486328125,-110.95482295482294,2.998778998778999,4.348229548229548
25:22.425,1.9794921875,-0.3212890625,-0.6865234375,-65.6890869140625,7.71331787109375,-8.65936279296875,5.847619047619047,-49.179975579975576,-5.847619047619047,-1.744140625,-0.3076171875,0.810546875,-39.55078125,-10.5133056640625,24.86419677734375,22.34090354090354,-53.97802197802198,84.56556776556776,0.14453125,2.3046875,-0.451171875,77.3468017578125,100.25787353515625,28.38134765625,-100.0092796092796,1.0495726495726496,26.83907203907204
25:23.254,1.9658203125,-0.283203125,-0.71875,25.90179443359375,-18.71490478515625,-7.232666015625,18.142612942612942,-36.285225885225884,-4.048351648351648,-1.43896484375,-0.89599609375,0.875,-39.55078125,-10.5133056640625,24.86419677734375,22.34090354090354,-53.97802197802198,84.56556776556776,0.86962890625,2.27392578125,0.701171875,77.3468017578125,100.25787353515625,28.38134765625,-100.0092796092796,1.0495726495726496,26.83907203907204
25:24.096,2.2919921875,-0.46337890625,-0.80810546875,-44.96002197265625,115.0054931640625,15.99884033203125,27.288888888888888,-16.943101343101343,-4.648107448107448,-2.091796875,-0.50634765625,0.97705078125,53.22265625,-8.68988037109375,-21.87347412109375,22.04102564102564,-66.42295482295482,82.46642246642246,-0.7724609375,1.146484375,0.4736328125,-33.50830078125,-125.152587890625,74.40185546875,-43.78217338217338,6.447374847374848,73.17020757020757
25:24.862,1.57177734375,0.1484375,-1.205078125,-30.98297119140625,-43.15948486328125,4.9285888671875,23.84029304029304,-18.29255189255189,-19.19218559218559,-1.82421875,-0.6064453125,0.81884765625,20.1263427734375,27.94647216796875,-18.66912841796875,5.547741147741148,-65.22344322344323,60.87521367521367,0.30810546875,2.02880859375,-0.068359375,41.5802001953125,-0.32806396484375,3.83758544921875,-58.77606837606837,0.4498168498168498,-0.8996336996336995
25:25.691,1.57177734375,0.1484375,-1.205078125,-30.98297119140625,-43.15948486328125,4.9285888671875,27.438827838827837,-14.694017094017093,-13.344566544566543,-1.6376953125,-0.52685546875,0.890625,-70.64056396484375,-17.9290771484375,28.3966064453125,8.846398046398047,-69.12185592185592,69.72161172161172,0.0712890625,1.75927734375,-1.96142578125,0.213623046875,42.18292236328125,34.7442626953125,-38.38437118437118,4.947985347985348,34.485958485958484
25:26.715,1.71630859375,-0.341796875,-0.85693359375,-35.91156005859375,82.8857421875,11.90185546875,26.689133089133087,-12.594871794871795,-18.142612942612942,-1.66552734375,-0.37646484375,0.8564453125,25.6805419921875,12.91656494140625,-18.37158203125,4.947985347985348,-70.47130647130646,63.57411477411477,-0.01611328125,2.33544921875,-0.4228515625,103.81317138671875,-51.7578125,-13.0157470703125,-35.38559218559219,-10.945543345543346,85.16532356532356
25:27.690,1.55810546875,-0.203125,-0.67724609375,114.73846435546875,-4.09698486328125,-50.88043212890625,22.64078144078144,-12.294993894993894,-9.146275946275946,-1.62255859375,-0.67431640625,0.9287109375,-104.4464111328125,-37.51373291015625,63.91143798828125,6.147496947496947,-73.47008547008546,66.72283272283272,-0.369140625,1.94775390625,-0.02294921875,-32.15789794921875,63.69781494140625,52.72674560546875,-63.724053724053725,-8.546520146520146,48.58021978021978
25:28.811,1.798828125,0.1005859375,-0.7919921875,15.5487060546875,52.25372314453125,6.744384765625,10.495726495726496,-16.793162393162394,-3.4485958485958483,-1.74609375,-0.4111328125,0.80517578125,-11.6119384765625,-25.9857177734375,10.101318359375,21.59120879120879,-76.31892551892551,73.02026862026862,0.16650390625,1.59228515625,-0.70361328125,24.8260498046875,-130.04302978515625,-63.7359619140625,-16.64322344322344,29.987789987789988,95.5111111111111
25:29.738,1.798828125,0.1005859375,-0.7919921875,13.03863525390625,-8.8043212890625,13.29803466796875,-10.195848595848595,-13.044688644688645,-23.09059829059829,-1.67138671875,-0.61328125,0.947265625,7.415771484375,-25.64239501953125,5.157470703125,29.088156288156288,-69.87155067155066,53.82808302808303,0.1875,2.10205078125,0.09423828125,35.7818603515625,-16.09039306640625,14.96124267578125,-23.09059829059829,33.28644688644688,97.01050061050061
25:30.517,2.72314453125,0.43798828125,-0.00927734375,13.03863525390625,-8.8043212890625,13.29803466796875,-10.195848595848595,-13.044688644688645,-23.09059829059829,-1.67138671875,-0.61328125,0.947265625,20.721435546875,9.28497314453125,-3.04412841796875,17.54285714285714,-65.52332112332113,38.084493284493284,0.1875,2.10205078125,0.09423828125,-218.52874755859375,107.78045654296875,48.0804443359375,-33.13650793650793,36.73504273504273,-33.73626373626374
25:31.298,1.60498046875,0.05810546875,-0.083984375,16.31927490234375,-5.4931640625,37.17803955078125,-16.793162393162394,-11.995115995115995,-34.036141636141636,-1.373046875,-0.5126953125,0.4765625,20.721435546875,9.28497314453125,-3.04412841796875,17.54285714285714,-65.52332112332113,38.084493284493284,-0.05126953125,2.31005859375,-0.86572265625,-218.52874755859375,107.78045654296875,48.0804443359375,-33.13650793650793,36.73504273504273,-33.73626373626374
25:32.126,2.10107421875,0.296875,-0.63623046875,-57.220458984375,-4.8980712890625,-9.63592529296875,-20.39169719169719,-16.943101343101343,-27.13894993894994,-1.76708984375,-0.5166015625,0.86572265625,44.07501220703125,30.9600830078125,-28.83148193359375,31.787057387057384,-65.37338217338217,51.279120879120875,0.42333984375,2.02978515625,0.02197265625,41.81671142578125,-3.4332275390625,-1.40380859375,-47.53064713064713,51.87887667887668,-5.547741147741148
25:32.955,1.998046875,-0.0439453125,-0.12890625,56.365966796875,-11.69586181640625,-15.7470703125,-17.692796092796094,-19.34212454212454,-30.137728937728937,-1.49462890625,-0.55419921875,0.83837890625,-36.88812255859375,-3.23486328125,13.64898681640625,25.639560439560437,-62.82442002442002,47.68058608058608,-0.12939453125,2.2265625,-1.5126953125,-108.70361328125,103.2562255859375,30.12847900390625,-55.027594627594624,24.29010989010989,18.892307692307693
25:33.833,1.81689453125,0.00146484375,-0.36572265625,-86.28082275390625,1.62506103515625,35.5682373046875,-12.294993894993894,-19.49206349206349,-13.194627594627594,-1.66796875,-0.2919921875,1.10107421875,47.760009765625,23.8189697265625,-23.24676513671875,33.28644688644688,-63.12429792429792,61.02515262515262,0.1875,2.14208984375,-0.5732421875,52.7496337890625,-14.33563232421875,-6.0577392578125,-52.928449328449325,38.53431013431013,5.397802197802197
25:34.856,1.671875,-0.7236328125,-0.86865234375,22.0794677734375,14.51873779296875,-31.158447265625,-7.946764346764346,-25.18974358974359,-10.495726495726496,-1.580078125,-0.39501953125,0.921875,-50.537109375,-6.30950927734375,25.55084228515625,29.238095238095237,-63.57411477411477,58.92600732600732,-0.83251953125,2.068359375,0.541015625,60.61553955078125,28.8543701171875,28.0609130859375,-42.28278388278388,36.135286935286935,-5.997557997557998
25:35.685,1.671875,-0.7236328125,-0.86865234375,-13.36669921875,66.35284423828125,11.3677978515625,6.147496947496947,-25.93943833943834,-24.14017094017094,-1.74462890625,-0.3388671875,1.35205078125,22.86529541015625,-8.72039794921875,-20.92742919921875,35.38559218559219,-63.873992673992674,76.16898656898657,-0.08740234375,2.13671875,-1.06298828125,77.49176025390625,-177.19268798828125,21.17919921875,-75.11941391941392,41.23321123321123,-14.394139194139193
25:36.562,2.18115234375,-0.24560546875,0.197265625,-13.36669921875,66.35284423828125,11.3677978515625,-18.742368742368743,-42.13284493284493,-30.437606837606836,-1.51611328125,-0.59716796875,0.9814453125,-88.1500244140625,-25.482177734375,53.2379150390625,28.338461538461537,-49.030036630036626,70.02148962148962,0.0673828125,2.109375,-0.03662109375,-28.84674072265625,30.3802490234375,26.39007568359375,-32.686691086691084,43.482295482295484,-26.83907203907204
25:37.537,2.0146484375,0.10498046875,0.03125,113.58642578125,-11.0626220703125,5.584716796875,-18.742368742368743,-42.13284493284493,-30.437606837606836,-1.51611328125,-0.59716796875,0.9814453125,-32.52410888671875,-7.2784423828125,11.40594482421875,26.83907203907204,-52.02881562881563,93.26202686202686,0.0673828125,2.109375,-0.03662109375,78.48358154296875,-16.693115234375,-58.6090087890625,-115.15311355311354,11.845177045177044,-35.985347985347985
25:38.318,1.96630859375,0.1240234375,-0.94091796875,43.548583984375,-29.327392578125,-8.30078125,17.39291819291819,-44.38192918192918,0.4498168498168498,-1.75146484375,-0.35888671875,0.73291015625,-32.52410888671875,-7.2784423828125,11.40594482421875,26.83907203907204,-52.02881562881563,93.26202686202686,-0.0654296875,2.09765625,-0.09912109375,78.48358154296875,-16.693115234375,-58.6090087890625,-115.15311355311354,11.845177045177044,-35.985347985347985
25:39.097,2.03955078125,0.0556640625,-0.4716796875,35.68267822265625,-25.81787109375,-17.60101318359375,-11.995115995115995,-43.18241758241758,-38.98412698412698,-1.640625,-0.5927734375,0.93896484375,-43.38836669921875,-5.34820556640625,30.0750732421875,40.033699633699634,-49.92967032967033,91.31282051282051,0.51123046875,1.86962890625,0.6025390625,45.0286865234375,-7.11822509765625,14.4805908203125,-116.2026862026862,13.344566544566543,-39.13406593406593
25:39.975,2.33154296875,0.12841796875,-0.58740234375,-33.203125,-14.58740234375,2.11334228515625,10.495726495726496,-37.03492063492063,-17.842735042735043,-2.265625,-0.5068359375,1.0166015625,39.4134521484375,11.5966796875,-31.16607666015625,27.738705738705736,-57.27667887667887,87.71428571428571,-0.11181640625,1.5146484375,-0.37841796875,61.48529052734375,-21.96502685546875,9.063720703125,-52.778510378510376,-4.348229548229548,82.01660561660562
25:40.804,2.33154296875,0.12841796875,-0.58740234375,39.8101806640625,-46.01287841796875,8.11767578125,14.544078144078144,-27.288888888888888,-29.83785103785104,-1.4521484375,-0.55322265625,0.2861328125,-37.9791259765625,0.93841552734375,17.9290771484375,9.446153846153846,-56.676923076923075,60.87521367521367,0.45751953125,2.07421875,0.1484375,53.35235595703125,-7.049560546875,-4.7760009765625,-75.71916971916971,0.14993894993894993,-17.39291819291819
25:41.681,1.67041015625,0.1396484375,-0.0283203125,39.8101806640625,-46.01287841796875,8.11767578125,15.443711843711844,-23.24053724053724,-22.19096459096459,-1.40087890625,-0.61572265625,0.9248046875,-37.3077392578125,-19.70672607421875,19.00482177734375,5.247863247863248,-63.724053724053725,59.07594627594627,-0.23291015625,2.79931640625,-1.38818359375,-205.1849365234375,64.0106201171875,38.4979248046875,-45.73137973137973,-3.1487179487179486,58.77606837606837
25:42.461,1.9453125,0.1328125,-0.4599609375,25.71868896484375,-6.256103515625,-15.31219482421875,15.443711843711844,-23.24053724053724,-22.19096459096459,-1.40087890625,-0.61572265625,0.9248046875,17.23480224609375,13.641357421875,-14.7705078125,4.1982905982905985,-65.67326007326007,63.12429792429792,-0.23291015625,2.79931640625,-1.38818359375,90.6982421875,-54.10003662109375,-12.47406005859375,-48.13040293040293,4.947985347985348,30.287667887667887
25:43.339,2.28125,-0.18603515625,-0.236328125,-22.62115478515625,61.59210205078125,-3.37982177734375,16.793162393162394,-19.34212454212454,-28.03858363858364,-1.52490234375,-0.32470703125,1.1689453125,17.23480224609375,13.641357421875,-14.7705078125,6.297435897435897,-72.12063492063491,71.07106227106227,-0.0146484375,2.376953125,-0.484375,90.6982421875,-54.10003662109375,-12.47406005859375,-64.62368742368741,4.947985347985348,-1.4993894993894994
25:44.362,2.1083984375,-0.06591796875,0.1064453125,66.18499755859375,-10.16998291015625,5.18798828125,27.13894993894994,-19.64200244200244,2.998778998778999,-1.609375,-0.62353515625,1.21435546875,-51.6815185546875,-7.92694091796875,39.92462158203125,6.297435897435897,-72.12063492063491,71.07106227106227,0.69287109375,1.861328125,0.59228515625,96.29058837890625,-110.78643798828125,5.523681640625,-14.094261294261294,-16.793162393162394,78.86788766788767
25:45.351,2.2451171875,-0.009765625,-0.162109375,-3.662109375,11.41357421875,12.10784912109375,27.438827838827837,-17.093040293040293,10.795604395604395,-1.74462890625,-0.33935546875,0.919921875,13.641357421875,-26.39007568359375,-6.134033203125,6.447374847374848,-70.77118437118438,61.02515262515262,0.17236328125,2.46337890625,-0.8212890625,96.29058837890625,-110.78643798828125,5.523681640625,-38.98412698412698,-19.941880341880342,41.533089133089135
25:46.215,2.154296875,0.21435546875,-0.90625,128.37982177734375,-23.223876953125,-53.253173828125,18.142612942612942,-16.343345543345542,-5.397802197802197,-1.62353515625,-0.63037109375,1.0576171875,-98.97613525390625,-37.2314453125,61.39373779296875,28.03858363858364,-76.16898656898657,71.82075702075701,-0.1943359375,2.02587890625,-0.03662109375,32.8369140625,-4.33349609375,-30.29632568359375,-31.337240537240536,36.285225885225884,84.56556776556776
25:47.336,1.79345703125,0.31787109375,-1.02685546875,34.8358154296875,16.0369873046875,-5.0048828125,5.397802197802197,-15.893528693528692,-5.397802197802197,-1.7509765625,-0.34423828125,0.7880859375,-65.71197509765625,-15.3656005859375,30.31158447265625,27.288888888888888,-69.12185592185592,51.429059829059824,-0.0087890625,2.14501953125,-0.40771484375,6.95037841796875,34.26361083984375,-7.7667236328125,-38.084493284493284,40.93333333333333,77.21855921855922
25:48.263,1.84130859375,0.2255859375,-0.38134765625,52.1697998046875,16.15142822265625,-25.56610107421875,-10.495726495726496,-11.995115995115995,-27.88864468864469,-1.591796875,-0.615234375,0.87353515625,-65.71197509765625,-15.3656005859375,30.31158447265625,27.288888888888888,-69.12185592185592,51.429059829059824,-0.92529296875,2.23046875,0.41015625,6.95037841796875,34.26361083984375,-7.7667236328125,-38.084493284493284,40.93333333333333,77.21855921855922
25:49.091,1.99072265625,-0.08837890625,-0.51416015625,-41.78619384765625,2.26593017578125,12.56561279296875,-15.443711843711844,-7.796825396825397,-25.78949938949939,-1.685546875,-0.34423828125,0.90478515625,36.55242919921875,7.75146484375,-21.04949951171875,23.690354090354088,-67.77240537240537,41.533089133089135,0.0615234375,2.19287109375,-0.5361328125,75.55389404296875,-30.60150146484375,-10.8489990234375,-18.44249084249084,55.62735042735043,3.4485958485958483
25:49.920,2.20068359375,0.1826171875,-0.30419921875,51.42974853515625,0.28228759765625,-6.44683837890625,-14.993894993894994,-9.446153846153846,-29.537973137973136,-1.68017578125,-0.73291015625,0.9677734375,-44.82269287109375,-6.6680908203125,31.43310546875,23.09059829059829,-64.92356532356533,40.33357753357753,0.259765625,2.02587890625,0.46923828125,69.46563720703125,2.43377685546875,23.3001708984375,4.1982905982905985,54.577777777777776,28.188522588522588
25:50.846,2.083984375,-0.0234375,-0.89306640625,-29.8309326171875,14.739990234375,8.2855224609375,-21.59120879120879,-14.694017094017093,-34.186080586080585,-2.11669921875,-0.619140625,1.1748046875,20.37811279296875,-11.16943359375,-15.43426513671875,24.88986568986569,-64.17387057387057,40.63345543345543,0.1337890625,1.99560546875,-1.20703125,107.70416259765625,-200.73699951171875,30.54046630859375,-81.41684981684982,35.53553113553114,-18.742368742368743
25:51.626,2.083984375,-0.0234375,-0.89306640625,-29.8309326171875,14.739990234375,8.2855224609375,-18.892307692307693,-19.19218559218559,-30.287667887667887,-1.48828125,-0.400390625,0.69287109375,15.72418212890625,-4.852294921875,-3.27301025390625,32.98656898656898,-64.02393162393162,51.429059829059824,0.35107421875,1.99755859375,0.17919921875,35.0189208984375,5.82122802734375,-2.95257568359375,-50.07960927960928,41.38315018315018,-7.946764346764346
25:52.455,1.61474609375,0.208984375,-0.2880859375,-11.02447509765625,-44.10552978515625,12.76397705078125,-18.892307692307693,-19.19218559218559,-30.287667887667887,-1.48828125,-0.400390625,0.69287109375,15.72418212890625,-4.852294921875,-3.27301025390625,29.388034188034187,-61.924786324786325,53.228327228327224,0.35107421875,1.99755859375,0.17919921875,-153.61785888671875,138.4429931640625,1.3427734375,-36.73504273504273,39.13406593406593,19.34212454212454
25:53.284,1.4775390625,0.1787109375,-1.02783203125,43.64776611328125,15.11383056640625,9.490966796875,-12.744810744810744,-18.59242979242979,-24.88986568986569,-1.6591796875,-0.5224609375,0.67724609375,-33.02764892578125,-8.79669189453125,2.9449462890625,29.388034188034187,-61.924786324786325,53.228327228327224,0.88427734375,1.42724609375,-1.126953125,-153.61785888671875,138.4429931640625,1.3427734375,-36.73504273504273,39.13406593406593,19.34212454212454
25:54.113,1.478515625,-0.08837890625,-1.40185546875,-36.07940673828125,-30.1666259765625,29.6630859375,-11.995115995115995,-17.54285714285714,-30.137728937728937,-1.8046875,-0.38330078125,0.6083984375,45.5322265625,42.4652099609375,-15.49530029296875,35.23565323565323,-68.52210012210011,66.87277167277168,0.6796875,1.9833984375,0.12939453125,29.16717529296875,41.14532470703125,0.946044921875,-40.33357753357753,45.73137973137973,7.496947496947497
25:54.893,1.3564453125,-0.025390625,-1.5517578125,42.27447509765625,33.11920166015625,-37.841796875,-5.697680097680098,-16.043467643467643,-50.22954822954823,-1.7822265625,-0.66796875,0.86083984375,-62.2406005859375,-22.91107177734375,24.16229248046875,32.08693528693529,-62.37460317460317,60.425396825396824,0.27587890625,2.68310546875,-1.212890625,-224.578857421875,142.18902587890625,33.5235595703125,-57.72649572649573,37.634676434676436,-8.396581196581197
25:56.063,1.39404296875,-0.337890625,-1.4755859375,-26.81732177734375,-3.05938720703125,17.5018310546875,-9.746031746031745,-23.690354090354088,-59.52576312576312,-1.73583984375,-0.431640625,0.86328125,6.59942626953125,22.0184326171875,5.7830810546875,34.635897435897434,-58.026373626373626,77.21855921855922,0.2568359375,2.05322265625,0.060546875,12.39013671875,-5.37109375,0.9918212890625,-53.228327228327224,56.526984126984125,-9.296214896214895
25:57.038,1.79833984375,0.01123046875,-1.16845703125,82.33642578125,-16.0675048828125,-69.22149658203125,6.297435897435897,-23.54041514041514,-78.86788766788767,-1.79736328125,-0.609375,0.93017578125,-80.29937744140625,-25.1007080078125,43.93768310546875,22.34090354090354,-46.93089133089133,69.57167277167277,0.5419921875,2.20361328125,-0.7236328125,-132.8125,249.99237060546875,-39.24560546875,-80.36727716727717,28.638339438339436,-55.47741147741147
25:57.866,1.6318359375,-0.255859375,-1.3779296875,33.9508056640625,-25.20751953125,-22.45330810546875,23.24053724053724,-35.38559218559219,-46.48107448107448,-1.74755859375,-0.53173828125,0.9453125,-60.98175048828125,-5.4473876953125,55.328369140625,24.88986568986569,-50.67936507936508,90.56312576312575,0.1806640625,2.07568359375,0.0458984375,10.13946533203125,13.34381103515625,-0.98419189453125,-98.95970695970695,31.487179487179485,-37.03492063492063
25:58.842,1.72998046875,0.0390625,-1.12158203125,32.89031982421875,-10.3912353515625,-22.28546142578125,-1.799267399267399,-42.13284493284493,-39.583882783882785,-1.6943359375,-0.5361328125,0.99365234375,-49.652099609375,-13.67950439453125,18.57757568359375,47.53064713064713,-52.628571428571426,113.2039072039072,0.1884765625,2.6455078125,-0.4794921875,-151.7486572265625,194.27490234375,56.1981201171875,-106.0068376068376,6.297435897435897,-16.343345543345542
25:59.671,1.72998046875,0.0390625,-1.12158203125,-30.548095703125,-5.53131103515625,9.1705322265625,7.047130647130647,-35.68547008547009,-49.179975579975576,-1.79296875,-0.4638671875,0.89111328125,9.0484619140625,10.5438232421875,0.28228759765625,32.536752136752135,-53.228327228327224,94.46153846153845,0.34228515625,1.9990234375,0.10986328125,30.87615966796875,12.96234130859375,-2.93731689453125,-107.806105006105,-6.447374847374848,20.99145299145299
26:00.596,1.50146484375,0.0009765625,-1.26171875,-30.548095703125,-5.53131103515625,9.1705322265625,7.047130647130647,-35.68547008547009,-49.179975579975576,-1.6328125,-0.5810546875,0.880859375,-71.55609130859375,-18.2342529296875,27.22930908203125,21.29133089133089,-59.52576312576312,86.36483516483516,-0.1865234375,2.41650390625,-0.53662109375,-153.3050537109375,80.6121826171875,10.6048583984375,-79.46764346764347,-2.998778998778999,71.52087912087912
26:01.425,1.8046875,-0.19287109375,-1.0634765625,46.051025390625,32.8216552734375,-1.312255859375,21.741147741147742,-29.987789987789988,-26.689133089133087,-1.6328125,-0.5810546875,0.880859375,73.37188720703125,15.8233642578125,-27.77099609375,14.244200244200243,-65.52332112332113,78.86788766788767,-0.1865234375,2.41650390625,-0.53662109375,33.10394287109375,-27.6336669921875,9.66644287109375,-52.778510378510376,7.946764346764346,62.074725274725274
26:02.351,1.544921875,-0.22705078125,-1.11572265625,-66.49017333984375,16.6473388671875,21.78192138671875,31.187301587301587,-19.19218559218559,-12.894749694749695,-1.7666015625,-0.462890625,0.7421875,73.37188720703125,15.8233642578125,-27.77099609375,14.244200244200243,-65.52332112332113,78.86788766788767,0.1513671875,2.22021484375,-0.3232421875,33.10394287109375,-27.6336669921875,9.66644287109375,-52.778510378510376,7.946764346764346,62.074725274725274
26:03.229,1.56396484375,0.06396484375,-0.544921875,7.32421875,-35.19439697265625,-22.33123779296875,33.13650793650793,-14.244200244200243,2.249084249084249,-1.52587890625,-0.5361328125,0.89404296875,-24.43695068359375,2.40325927734375,20.04241943359375,18.892307692307693,-70.32136752136752,78.86788766788767,0.1767578125,2.29443359375,-0.5830078125,-138.86260986328125,46.1578369140625,25.634765625,-53.97802197802198,7.646886446886446,57.72649572649573
26:04.058,1.701171875,0.0908203125,-1.22509765625,-73.02093505859375,-39.40582275390625,26.885986328125,21.89108669108669,-15.593650793650793,-25.489621489621488,-1.64599609375,-0.330078125,0.79150390625,49.79705810546875,25.177001953125,-23.98681640625,4.947985347985348,-66.12307692307692,57.87643467643468,0.31982421875,2.154296875,-0.36669921875,69.37408447265625,-13.45062255859375,-10.0860595703125,-35.38559218559219,-0.7496947496947497,42.58266178266178
26:04.886,1.11962890625,-1.07177734375,0.1435546875,94.17724609375,-51.3916015625,207.366943359375,24.14017094017094,-15.893528693528692,-27.13894993894994,-1.55078125,-0.5908203125,1.01220703125,-42.19818115234375,-22.77374267578125,18.85223388671875,3.8984126984126983,-66.42295482295482,63.12429792429792,0.087890625,1.84619140625,0.54638671875,48.858642578125,122.894287109375,19.95086669921875,-37.18485958485958,4.947985347985348,28.93821733821734
26:05.812,0.37451171875,-1.93115234375,0.9609375,11.00921630859375,69.23675537109375,-12.5885009765625,50.67936507936508,0.0,30.587545787545785,-1.65966796875,-0.60791015625,1.00439453125,31.30340576171875,2.18963623046875,-26.8402099609375,8.996336996336996,-71.22100122100122,71.97069597069597,0.13037109375,2.26953125,-1.13427734375,92.97943115234375,-185.72235107421875,16.326904296875,-37.03492063492063,-4.1982905982905985,95.810989010989
26:06.837,-0.70361328125,-1.73876953125,0.6240234375,-23.71978759765625,69.49615478515625,-20.1568603515625,35.23565323565323,14.544078144078144,42.58266178266178,-1.52392578125,-0.71484375,0.96337890625,13.0615234375,-5.89752197265625,10.45989990234375,13.494505494505495,-76.91868131868132,74.21978021978022,0.52587890625,1.9375,0.28564453125,24.94049072265625,-48.0804443359375,1.068115234375,-70.32136752136752,-4.947985347985348,30.137728937728937
26:07.714,-0.70361328125,-1.73876953125,0.6240234375,42.73223876953125,94.85626220703125,-9.62066650390625,31.337240537240536,28.03858363858364,11.845177045177044,-1.73828125,-0.58447265625,1.08837890625,74.3865966796875,12.61138916015625,-46.8597412109375,12.894749694749695,-74.81953601953602,71.22100122100122,0.23681640625,1.79052734375,-0.9521484375,51.44500732421875,-182.55615234375,55.145263671875,-36.135286935286935,-11.245421245421245,29.537973137973136
26:08.494,-0.8974609375,-1.8818359375,0.52587890625,42.73223876953125,94.85626220703125,-9.62066650390625,31.337240537240536,28.03858363858364,11.845177045177044,-1.73828125,-0.58447265625,1.08837890625,43.4722900390625,23.59771728515625,13.06915283203125,0.5997557997557997,-67.92234432234432,51.57899877899878,0.23681640625,1.79052734375,-0.9521484375,15.960693359375,-5.51605224609375,16.9677734375,-29.987789987789988,-7.646886446886446,-3.1487179487179486
26:09.469,-0.39453125,-1.38037109375,1.14501953125,-35.92681884765625,-91.339111328125,-47.01995849609375,45.28156288156288,14.694017094017093,10.345787545787545,-1.697265625,-0.73876953125,0.7890625,18.40972900390625,-16.693115234375,-11.566162109375,15.743589743589743,-63.27423687423687,37.634676434676436,0.29296875,1.99853515625,0.11328125,-205.51300048828125,40.71044921875,67.60406494140625,-31.037362637362637,54.877655677655675,23.690354090354088
26:10.346,1.3486328125,1.90771484375,0.34814453125,-89.05029296875,17.70782470703125,-250.0,45.13162393162393,4.1982905982905985,31.337240537240536,-1.0390625,-0.65283203125,0.470703125,18.40972900390625,-16.693115234375,-11.566162109375,25.93943833943834,-68.67203907203907,48.43028083028083,-0.1708984375,2.06982421875,-0.431640625,-205.51300048828125,40.71044921875,67.60406494140625,-0.5997557997557997,55.17753357753357,77.96825396825396
26:11.272,0.3828125,1.92431640625,0.07763671875,-23.20098876953125,-7.7972412109375,49.47662353515625,-25.639560439560437,4.348229548229548,-19.941880341880342,-1.58837890625,-0.26708984375,0.9189453125,-1.8463134765625,2.41851806640625,-11.78741455078125,25.93943833943834,-68.67203907203907,48.43028083028083,0.14013671875,2.0263671875,-0.2822265625,66.009521484375,1.373291015625,-3.71551513671875,-0.5997557997557997,55.17753357753357,77.96825396825396
26:12.101,0.79833984375,1.74658203125,0.103515625,12.786865234375,-44.12078857421875,-35.65216064453125,-32.686691086691084,10.045909645909646,-17.992673992673993,-1.55810546875,-0.41650390625,1.06396484375,-44.04449462890625,0.77056884765625,35.01129150390625,23.84029304029304,-64.17387057387057,43.482295482295484,-0.27587890625,1.93798828125,0.41748046875,67.32177734375,-58.28857421875,21.514892578125,-41.683028083028084,39.13406593406593,-34.485958485958484
26:13.028,0.45654296875,1.5625,0.61181640625,-28.75518798828125,-6.00433349609375,-47.79815673828125,-34.036141636141636,13.344566544566543,-20.99145299145299,-1.3388671875,-0.341796875,0.79052734375,22.76611328125,-24.87945556640625,-23.91815185546875,29.987789987789988,-65.67326007326007,53.67814407814408,0.2109375,1.43017578125,-0.07373046875,-156.43310546875,-66.62750244140625,17.15087890625,-46.03125763125763,30.137728937728937,32.98656898656898
26:13.857,0.95166015625,2.21044921875,-0.091796875,-12.13836669921875,125.81634521484375,57.76214599609375,-29.687912087912085,15.593650793650793,-13.644444444444444,-1.72607421875,-0.1416015625,1.11376953125,-38.24615478515625,0.17547607421875,25.23040771484375,30.887423687423688,-68.07228327228327,64.02393162393162,0.72021484375,1.9482421875,0.0703125,35.13336181640625,24.40643310546875,8.53729248046875,-30.137728937728937,39.583882783882785,33.28644688644688
26:14.685,0.95166015625,2.21044921875,-0.091796875,-12.13836669921875,125.81634521484375,57.76214599609375,-33.88620268620269,15.293772893772893,-28.338461538461537,-1.43115234375,-0.76513671875,1.08642578125,-46.57745361328125,-10.50567626953125,28.4423828125,25.78949938949939,-64.77362637362637,56.676923076923075,0.30908203125,2.3369140625,-0.93310546875,-78.01055908203125,142.608642578125,-25.32958984375,-53.52820512820512,31.487179487179485,-7.796825396825397
26:15.563,-0.08447265625,1.79638671875,1.89453125,-0.43487548828125,54.51202392578125,22.10235595703125,-33.88620268620269,15.293772893772893,-28.338461538461537,-1.6279296875,-0.14501953125,0.9365234375,-0.92315673828125,2.5177001953125,-6.103515625,28.638339438339436,-60.425396825396824,61.624908424908426,-0.43359375,2.6552734375,-0.2109375,115.5548095703125,-63.24005126953125,-24.0020751953125,-65.97313797313797,37.03492063492063,-14.244200244200243
26:16.538,0.484375,1.853515625,0.61767578125,-0.335693359375,-4.37164306640625,-1.04522705078125,-50.829304029304026,9.895970695970696,-41.38315018315018,-1.6279296875,-0.14501953125,0.9365234375,-90.5303955078125,-36.29302978515625,56.2591552734375,26.539194139194137,-50.07960927960928,60.57533577533577,-0.43359375,2.6552734375,-0.2109375,-9.25445556640625,19.9432373046875,28.13720703125,-39.28400488400488,36.73504273504273,-22.19096459096459
26:17.318,0.26904296875,2.03466796875,0.1884765625,24.55902099609375,102.203369140625,61.9659423828125,-62.97435897435897,12.594871794871795,-69.12185592185592,-1.71240234375,-0.6748046875,0.78076171875,-90.5303955078125,-36.29302978515625,56.2591552734375,26.539194139194137,-50.07960927960928,60.57533577533577,0.10693359375,2.04248046875,0.1064453125,-9.25445556640625,19.9432373046875,28.13720703125,-39.28400488400488,36.73504273504273,-22.19096459096459
26:18.098,0.3505859375,1.8291015625,0.2998046875,-11.16943359375,14.93072509765625,56.640625,-65.82319902319902,-10.645665445665445,-36.73504273504273,-1.48095703125,-0.48095703125,0.68310546875,-4.72259521484375,4.547119140625,-5.096435546875,16.793162393162394,-51.57899877899878,68.97191697191697,-0.2275390625,2.05859375,-0.4150390625,-148.2086181640625,24.810791015625,45.47119140625,-118.75164835164834,-9.146275946275946,-3.1487179487179486
26:18.878,0.2177734375,1.87841796875,0.1552734375,-9.490966796875,-50.323486328125,25.03204345703125,-50.07960927960928,-13.194627594627594,-24.88986568986569,-1.69189453125,-0.06201171875,0.705078125,20.4925537109375,8.7890625,-14.1143798828125,13.494505494505495,-57.12673992673992,71.82075702075701,0.11767578125,2.2568359375,-0.294921875,74.54681396484375,-5.43212890625,-22.97210693359375,-103.0080586080586,-4.648107448107448,-6.597313797313797
26:19.659,0.2177734375,1.87841796875,0.1552734375,-9.490966796875,-50.323486328125,25.03204345703125,-41.98290598290598,-17.093040293040293,-32.08693528693529,-1.78857421875,-0.67529296875,1.1005859375,12.76397705078125,3.265380859375,31.41021728515625,7.496947496947497,-63.57411477411477,67.47252747252747,0.22412109375,2.0634765625,0.27099609375,34.027099609375,10.406494140625,6.15692138671875,-75.86910866910867,4.1982905982905985,46.33113553113553
26:20.438,0.412109375,2.1259765625,0.767578125,24.139404296875,-36.12518310546875,-16.33453369140625,-41.98290598290598,-17.093040293040293,-32.08693528693529,-1.78857421875,-0.67529296875,1.1005859375,12.76397705078125,3.265380859375,31.41021728515625,4.648107448107448,-66.12307692307692,63.57411477411477,0.22412109375,2.0634765625,0.27099609375,34.027099609375,10.406494140625,6.15692138671875,-38.084493284493284,-4.648107448107448,62.97435897435897
26:21.218,0.27734375,2.5009765625,0.26318359375,3.143310546875,92.75054931640625,99.73907470703125,-33.58632478632479,-16.043467643467643,-37.18485958485958,-1.9150390625,-0.45556640625,0.8857421875,-35.22491455078125,-3.77655029296875,8.148193359375,4.648107448107448,-66.12307692307692,63.57411477411477,0.33154296875,2.37451171875,-0.720703125,-250.0,99.4110107421875,34.6221923828125,-38.084493284493284,-4.648107448107448,62.97435897435897
26:22.046,0.35546875,1.671875,0.1943359375,-8.5906982421875,4.58526611328125,13.671875,-41.832967032967034,-6.597313797313797,-54.427838827838826,-1.60888671875,-0.2724609375,0.98291015625,18.60809326171875,14.8468017578125,-24.8870849609375,1.3494505494505493,-63.873992673992674,56.526984126984125,-0.3076171875,2.59765625,-0.14990234375,118.73626708984375,-92.62847900390625,-19.3023681640625,-48.13040293040293,8.996336996336996,25.78949938949939
26:22.973,0.44921875,2.466796875,0.41162109375,12.12310791015625,39.40582275390625,3.6468505859375,-18.892307692307693,-22.34090354090354,-14.244200244200243,-1.8935546875,-0.55126953125,1.2333984375,-12.0697021484375,-10.345458984375,34.88922119140625,3.7484737484737485,-69.87155067155066,64.77362637362637,0.62890625,1.93994140625,0.3515625,40.80963134765625,28.11431884765625,6.72149658203125,-80.81709401709402,3.1487179487179486,-16.193406593406593
26:23.802,0.44921875,2.466796875,0.41162109375,4.46319580078125,-98.5107421875,-38.26141357421875,-22.64078144078144,-14.244200244200243,-11.995115995115995,-1.63525390625,-0.39892578125,0.91162109375,81.80999755859375,29.5867919921875,-43.80035400390625,6.597313797313797,-74.36971916971916,69.27179487179487,-1.02685546875,2.18798828125,-0.33154296875,-96.21429443359375,-250.0,81.45904541015625,-28.338461538461537,-16.193406593406593,73.02026862026862
26:24.728,0.60107421875,1.89697265625,0.1025390625,-45.58563232421875,134.9029541015625,41.8243408203125,-33.88620268620269,-2.249084249084249,-42.73260073260073,-1.779296875,-0.51708984375,0.93896484375,55.10711669921875,1.220703125,-33.0047607421875,-2.399023199023199,-65.52332112332113,41.98290598290598,0.39501953125,1.96533203125,0.14794921875,23.101806640625,-10.47515869140625,4.5318603515625,-29.238095238095237,-2.249084249084249,-18.29255189255189
26:25.556,0.341796875,2.48095703125,0.48095703125,-45.58563232421875,134.9029541015625,41.8243408203125,-22.94065934065934,18.142612942612942,-31.487179487179485,-1.74267578125,-0.54150390625,0.9951171875,-51.9866943359375,-12.15362548828125,27.7099609375,17.54285714285714,-64.02393162393162,38.68424908424908,0.51416015625,2.4990234375,-0.75,-197.91412353515625,113.63983154296875,37.91046142578125,-16.193406593406593,62.074725274725274,9.596092796092796
26:26.483,0.48828125,2.408203125,0.56103515625,-29.72412109375,99.5941162109375,78.81927490234375,-22.94065934065934,18.142612942612942,-31.487179487179485,-1.74267578125,-0.54150390625,0.9951171875,50.80413818359375,22.5067138671875,-37.567138671875,32.98656898656898,-68.82197802197803,53.52820512820512,0.51416015625,2.4990234375,-0.75,107.23876953125,-31.25,-1.0223388671875,-64.77362637362637,43.93211233211233,-22.94065934065934
26:27.312,0.75,1.611328125,-0.11474609375,14.251708984375,-33.050537109375,-19.24896240234375,-23.24053724053724,22.49084249084249,-13.944322344322345,-1.576171875,-0.21044921875,1.005859375,50.80413818359375,22.5067138671875,-37.567138671875,32.98656898656898,-68.82197802197803,53.52820512820512,0.13818359375,2.52783203125,-0.49169921875,107.23876953125,-31.25,-1.0223388671875,-64.77362637362637,43.93211233211233,-22.94065934065934
26:28.091,1.6943359375,0.865234375,1.25927734375,15.625,24.1241455078125,18.768310546875,-37.33479853479853,6.147496947496947,-24.739926739926737,-2.0068359375,-0.52197265625,1.3115234375,-29.11376953125,-36.285400390625,24.810791015625,26.83907203907204,-63.27423687423687,53.228327228327224,0.60302734375,1.81884765625,0.408203125,46.56982421875,19.5159912109375,18.91326904296875,-68.82197802197803,29.088156288156288,-18.44249084249084
26:28.871,1.62744140625,0.59228515625,-0.13818359375,-2.227783203125,133.97979736328125,8.50677490234375,-26.83907203907204,-13.644444444444444,-14.094261294261294,-1.48095703125,-0.64306640625,0.7099609375,-1.02996826171875,14.03045654296875,0.6866455078125,30.287667887667887,-64.17387057387057,57.27667887667887,-0.42578125,2.28759765625,-0.86474609375,-223.4039306640625,27.740478515625,60.24169921875,-54.12796092796093,37.634676434676436,-3.598534798534798
26:29.651,1.62744140625,0.59228515625,-0.13818359375,-2.227783203125,133.97979736328125,8.50677490234375,-29.83785103785104,-20.54163614163614,-25.78949938949939,-1.67626953125,-0.3388671875,0.8447265625,16.265869140625,15.7928466796875,-10.23101806640625,32.386813186813185,-62.224664224664224,63.724053724053725,0.2060546875,2.10693359375,-0.3037109375,56.82373046875,-1.7547607421875,3.9215087890625,-43.18241758241758,49.030036630036626,3.8984126984126983
26:30.578,2.17236328125,0.48388671875,-0.1796875,-31.6925048828125,99.02191162109375,14.51873779296875,-29.83785103785104,-20.54163614163614,-25.78949938949939,-1.71044921875,-0.55224609375,0.9619140625,-117.523193359375,-27.7252197265625,68.61114501953125,27.13894993894994,-54.27789987789988,61.774847374847376,-0.02734375,2.09326171875,-0.408203125,0.3509521484375,-25.9857177734375,40.2984619140625,-62.37460317460317,30.437606837606836,-42.43272283272283
26:31.358,2.1845703125,0.54931640625,-0.1669921875,154.083251953125,17.76885986328125,-9.5672607421875,-35.835409035409036,-28.788278388278385,-49.030036630036626,-1.71044921875,-0.55224609375,0.9619140625,-117.523193359375,-27.7252197265625,68.61114501953125,24.88986568986569,-52.17875457875458,80.81709401709402,-0.02734375,2.09326171875,-0.408203125,0.3509521484375,-25.9857177734375,40.2984619140625,-123.84957264957265,22.34090354090354,-49.329914529914525
26:32.235,1.9609375,0.740234375,-0.56103515625,38.55133056640625,45.2880859375,-3.27301025390625,-12.594871794871795,-46.48107448107448,-20.69157509157509,-1.8046875,-0.26416015625,0.62451171875,-33.21075439453125,-12.4664306640625,18.6004638671875,24.88986568986569,-52.17875457875458,80.81709401709402,-0.06298828125,2.08984375,-0.26904296875,38.49029541015625,-11.3525390625,-31.8145751953125,-123.84957264957265,22.34090354090354,-49.329914529914525
26:33.015,1.94091796875,0.58935546875,-0.05810546875,34.1644287109375,1.54876708984375,-9.9334716796875,-62.97435897435897,-24.88986568986569,-101.50866910866911,-1.630859375,-0.50146484375,1.04345703125,-40.24505615234375,-11.66534423828125,24.62005615234375,37.784615384615385,-47.230769230769226,84.86544566544566,0.072265625,1.8984375,-0.00146484375,20.91217041015625,-127.9754638671875,20.843505859375,-122.2002442002442,10.195848595848595,-53.97802197802198
26:34.039,1.6962890625,0.60693359375,0.10791015625,-20.94268798828125,5.34820556640625,15.76995849609375,-10.195848595848595,-40.48351648351648,-22.04102564102564,-1.41259765625,-0.3662109375,0.6142578125,15.19775390625,-20.233154296875,-0.57220458984375,23.84029304029304,-55.027594627594624,79.76752136752137,-0.3701171875,1.2587890625,-0.130859375,-127.960205078125,56.54144287109375,70.404052734375,-87.56434676434677,-6.747252747252747,62.97435897435897
26:34.819,1.6923828125,0.96240234375,-0.0400390625,-25.47454833984375,55.8929443359375,8.33892822265625,-2.399023199023199,-35.08571428571428,-16.943101343101343,-1.67724609375,-0.294921875,0.9619140625,24.7802734375,21.4996337890625,-36.93389892578125,14.394139194139193,-59.52576312576312,73.76996336996336,0.27392578125,2.046875,-0.19873046875,67.0166015625,5.30242919921875,-8.7432861328125,-86.06495726495726,2.6989010989010986,-14.244200244200243
26:35.599,1.6923828125,0.96240234375,-0.0400390625,-25.47454833984375,55.8929443359375,8.33892822265625,13.044688644688645,-26.389255189255188,-5.547741147741148,-1.58740234375,-0.70654296875,1.02587890625,-1.3580322265625,-7.0037841796875,1.6937255859375,5.697680097680098,-67.17264957264958,67.47252747252747,0.8369140625,1.68017578125,0.52099609375,29.36553955078125,-46.60797119140625,8.26263427734375,-56.526984126984125,-2.399023199023199,43.03247863247863
26:36.428,1.84130859375,0.927734375,1.376953125,-24.13177490234375,51.81884765625,5.76019287109375,13.044688644688645,-26.389255189255188,-5.547741147741148,-1.58740234375,-0.70654296875,1.02587890625,-1.3580322265625,-7.0037841796875,1.6937255859375,5.247863247863248,-65.22344322344323,62.37460317460317,0.8369140625,1.68017578125,0.52099609375,7.6751708984375,66.94793701171875,28.6865234375,-24.44004884004884,5.847619047619047,55.92722832722833
26:37.305,0.33154296875,2.57763671875,0.26708984375,22.05657958984375,-13.51165771484375,-26.46636962890625,2.249084249084249,-26.539194139194137,3.8984126984126983,-2.203125,-0.50048828125,1.25341796875,-8.79669189453125,8.9263916015625,5.14984130859375,5.247863247863248,-65.22344322344323,62.37460317460317,0.3212890625,1.10107421875,0.14990234375,7.6751708984375,66.94793701171875,28.6865234375,-24.44004884004884,5.847619047619047,55.92722832722833
26:38.134,0.3330078125,2.31884765625,0.271484375,-9.45281982421875,139.48822021484375,71.90704345703125,-41.08327228327228,0.7496947496947497,-56.826862026862024,-1.70263671875,-0.59326171875,0.955078125,0.37384033203125,16.4947509765625,-7.75146484375,1.799267399267399,-62.074725274725274,49.479853479853475,0.28271484375,2.0419921875,-0.0712890625,38.7420654296875,-3.34930419921875,1.708984375,-49.479853479853475,11.845177045177044,-0.7496947496947497
26:38.963,0.4833984375,2.01220703125,0.3310546875,22.59063720703125,76.80511474609375,38.51318359375,-20.99145299145299,-17.992673992673993,-12.444932844932845,-1.4970703125,-0.47265625,1.0380859375,-33.63800048828125,-6.15692138671875,13.671875,7.946764346764346,-74.06984126984126,70.62124542124542,0.7890625,1.66064453125,-0.2216796875,-5.9814453125,41.13006591796875,32.49359130859375,-47.53064713064713,-3.8984126984126983,85.91501831501832
26:39.743,0.4833984375,2.01220703125,0.3310546875,-61.85150146484375,-169.708251953125,-86.60125732421875,-23.690354090354088,-12.145054945054945,-28.03858363858364,-1.75732421875,-0.34716796875,0.81103515625,132.049560546875,33.966064453125,-75.18768310546875,4.947985347985348,-74.81953601953602,62.82442002442002,0.4658203125,2.09521484375,-0.431640625,51.116943359375,-243.2098388671875,69.57244873046875,-29.537973137973136,-13.644444444444444,20.99145299145299
26:40.572,0.666015625,2.0009765625,-0.0439453125,-61.85150146484375,-169.708251953125,-86.60125732421875,-29.83785103785104,-4.947985347985348,-40.18363858363858,-1.9111328125,-0.7685546875,1.02294921875,9.94110107421875,-10.88714599609375,12.0391845703125,1.0495726495726496,-67.47252747252747,45.28156288156288,0.41845703125,2.033203125,0.2548828125,27.1759033203125,-7.598876953125,14.16778564453125,-21.89108669108669,-5.697680097680098,3.2986568986568985
26:41.449,0.76025390625,2.4921875,0.4677734375,-5.43212890625,4.57763671875,4.08935546875,-29.83785103785104,-4.947985347985348,-40.18363858363858,-1.9111328125,-0.7685546875,1.02294921875,9.94110107421875,-10.88714599609375,12.0391845703125,16.343345543345542,-65.22344322344323,35.985347985347985,0.41845703125,2.033203125,0.2548828125,27.1759033203125,-7.598876953125,14.16778564453125,-36.135286935286935,61.774847374847376,27.13894993894994
26:42.229,1.0908203125,-1.4765625,0.68212890625,12.14599609375,5.767822265625,18.85223388671875,-21.89108669108669,14.544078144078144,-26.689133089133087,-1.341796875,-0.67431640625,0.57861328125,6.67572021484375,-20.08056640625,0.823974609375,16.343345543345542,-65.22344322344323,35.985347985347985,-0.064453125,1.89208984375,-0.3017578125,-180.30548095703125,-26.6571044921875,79.38385009765625,-36.135286935286935,61.774847374847376,27.13894993894994
26:43.106,-0.23291015625,-1.88427734375,0.59814453125,9.521484375,80.9783935546875,-27.21405029296875,31.787057387057384,-13.494505494505495,14.094261294261294,-1.689453125,-0.39013671875,0.68896484375,55.82427978515625,34.820556640625,-21.79718017578125,29.987789987789988,-68.67203907203907,48.13040293040293,0.21630859375,1.962890625,-0.25244140625,56.58721923828125,20.88165283203125,-2.32696533203125,-6.447374847374848,59.07594627594627,52.47863247863248
26:44.081,1.306640625,-1.14892578125,-1.07373046875,-12.725830078125,-45.17364501953125,-17.9290771484375,40.93333333333333,-1.3494505494505493,38.98412698412698,-1.720703125,-0.42138671875,0.68505859375,-18.94378662109375,0.67901611328125,13.05389404296875,30.887423687423688,-66.27301587301586,48.88009768009768,0.23046875,2.14599609375,-1.36181640625,-34.61456298828125,45.55511474609375,4.67681884765625,-69.57167277167277,38.53431013431013,-41.38315018315018
26:45.056,1.0830078125,-0.82080078125,-1.609375,18.82171630859375,3.08990478515625,-36.50665283203125,7.646886446886446,-19.34212454212454,-30.437606837606836,-1.88818359375,-0.3193359375,0.57275390625,-18.95904541015625,-25.5889892578125,-1.38092041015625,33.88620268620269,-66.87277167277168,61.774847374847376,0.34765625,2.201171875,-1.22607421875,139.74761962890625,-164.947509765625,-27.27508544921875,-34.336019536019535,31.487179487179485,29.238095238095237
26:45.934,1.73388671875,1.84423828125,-0.43603515625,-52.886962890625,43.2891845703125,-186.9964599609375,1.6493284493284492,-13.644444444444444,-39.583882783882785,-1.4716796875,-0.39501953125,0.6220703125,2.0294189453125,-21.3165283203125,19.26422119140625,34.186080586080585,-68.07228327228327,57.72649572649573,0.31787109375,2.03662109375,0.02490234375,22.308349609375,-27.9693603515625,0.08392333984375,-21.59120879120879,36.285225885225884,29.088156288156288
26:46.714,1.73388671875,1.84423828125,-0.43603515625,-16.19720458984375,167.022705078125,38.76495361328125,-40.48351648351648,-6.297435897435897,-25.78949938949939,-1.90576171875,-0.53759765625,0.884765625,-46.45538330078125,-5.6304931640625,10.96343994140625,28.488400488400487,-62.82442002442002,57.57655677655677,0.62255859375,2.615234375,-0.9521484375,-223.76251220703125,181.9000244140625,6.134033203125,-55.77728937728938,34.186080586080585,-4.048351648351648
26:47.543,-0.36669921875,2.04833984375,0.5732421875,-16.19720458984375,167.022705078125,38.76495361328125,-40.48351648351648,-6.297435897435897,-25.78949938949939,-1.76513671875,-0.3056640625,0.84423828125,-6.27899169921875,15.350341796875,2.93731689453125,37.03492063492063,-61.924786324786325,72.42051282051281,0.22900390625,2.07275390625,-0.23095703125,38.33770751953125,-12.3443603515625,4.150390625,-54.427838827838826,51.129181929181925,-4.498168498168498
26:48.420,0.3349609375,1.82373046875,0.17919921875,-16.48712158203125,-33.18023681640625,43.09844970703125,-44.68180708180708,16.193406593406593,-20.39169719169719,-1.76513671875,-0.3056640625,0.84423828125,-93.4295654296875,-29.4342041015625,53.53546142578125,23.39047619047619,-48.13040293040293,63.12429792429792,0.22900390625,2.07275390625,-0.23095703125,-16.51763916015625,-45.82977294921875,39.5660400390625,-72.12063492063491,22.94065934065934,-63.724053724053725
26:49.249,0.44970703125,1.9853515625,0.3046875,9.57489013671875,129.06646728515625,42.79327392578125,-76.91868131868132,-12.145054945054945,-68.97191697191697,-1.6123046875,-0.6904296875,0.8671875,-93.4295654296875,-29.4342041015625,53.53546142578125,23.39047619047619,-48.13040293040293,63.12429792429792,1.2119140625,1.50439453125,-0.72314453125,-16.51763916015625,-45.82977294921875,39.5660400390625,-72.12063492063491,22.94065934065934,-63.724053724053725
26:50.029,0.5068359375,2.07958984375,0.43359375,-4.669189453125,54.29840087890625,34.11865234375,-71.97069597069597,-13.194627594627594,-43.63223443223443,-1.7822265625,-0.28076171875,0.82177734375,-48.54583740234375,-15.76995849609375,29.1595458984375,27.288888888888888,-52.32869352869353,91.46275946275946,0.03955078125,2.029296875,-0.078125,21.33941650390625,-18.80645751953125,-18.62335205078125,-109.6053724053724,22.19096459096459,-43.18241758241758
26:50.809,0.3896484375,1.869140625,0.51171875,7.14111328125,4.8828125,-15.3350830078125,-78.56800976800976,-8.846398046398047,-19.941880341880342,-1.5107421875,-0.66064453125,0.94482421875,-17.5628662109375,10.53619384765625,4.33349609375,39.433943833943836,-49.179975579975576,99.7094017094017,0.03173828125,1.80810546875,-0.34375,-12.99285888671875,11.138916015625,6.24847412109375,-109.6053724053724,10.645665445665445,-32.386813186813185
26:51.686,0.3896484375,1.869140625,0.51171875,7.14111328125,4.8828125,-15.3350830078125,-67.92234432234432,-5.247863247863248,-25.489621489621488,-1.73193359375,-0.4794921875,1.1220703125,-10.56671142578125,9.17816162109375,5.767822265625,37.03492063492063,-53.37826617826617,99.85934065934066,0.23583984375,2.0205078125,-0.193359375,40.5120849609375,4.7454833984375,-8.21685791015625,-94.91135531135531,-8.696459096459096,51.57899877899878
26:52.515,0.50634765625,2.1982421875,0.35205078125,9.25445556640625,32.8216552734375,-8.6822509765625,-67.92234432234432,-5.247863247863248,-25.489621489621488,-1.73193359375,-0.4794921875,1.1220703125,-24.4903564453125,-7.10296630859375,10.55908203125,21.59120879120879,-56.227106227106226,84.56556776556776,0.23583984375,2.0205078125,-0.193359375,28.25927734375,1.60980224609375,-3.021240234375,-113.2039072039072,-11.845177045177044,5.397802197802197
26:53.295,0.56005859375,1.60791015625,0.29296875,-5.04302978515625,28.66363525390625,-16.59393310546875,-66.12307692307692,-13.494505494505495,-34.036141636141636,-1.3330078125,-0.51806640625,1.15673828125,-24.4903564453125,-7.10296630859375,10.55908203125,21.59120879120879,-56.227106227106226,84.56556776556776,-0.171875,2.28515625,0.51611328125,28.25927734375,1.60980224609375,-3.021240234375,-113.2039072039072,-11.845177045177044,5.397802197802197
26:54.076,0.4150390625,2.0380859375,-0.02099609375,-22.72796630859375,-80.48248291015625,-41.02325439453125,-44.83174603174603,-18.29255189255189,-29.088156288156288,-1.81787109375,-0.091796875,0.8427734375,51.38397216796875,-1.861572265625,-36.23199462890625,11.845177045177044,-63.12429792429792,76.16898656898657,0.0244140625,1.34814453125,-0.7421875,73.86016845703125,-185.6536865234375,17.72308349609375,-46.93089133089133,-10.195848595848595,65.97313797313797
26:54.855,0.44287109375,2.05615234375,-0.072265625,-34.21783447265625,40.6341552734375,83.93096923828125,-50.52942612942613,-4.048351648351648,-51.87887667887668,-1.5263671875,-0.48486328125,0.609375,-50.96435546875,-15.8538818359375,21.697998046875,2.998778998778999,-61.924786324786325,55.62735042735043,0.396484375,2.0380859375,-0.06396484375,40.59600830078125,-15.37322998046875,3.36456298828125,-69.27179487179487,4.648107448107448,-12.594871794871795
26:55.733,0.44287109375,2.05615234375,-0.072265625,33.92791748046875,130.706787109375,-13.6871337890625,-35.835409035409036,-14.544078144078144,-46.33113553113553,-1.64404296875,-0.4404296875,0.88671875,-39.71099853515625,-2.29644775390625,18.36395263671875,2.399023199023199,-69.42173382173382,65.22344322344323,-0.3310546875,2.0654296875,0.41845703125,67.5048828125,0.640869140625,21.87347412109375,-28.338461538461537,-0.29987789987789987,61.924786324786325
26:56.757,0.564453125,1.88232421875,0.2529296875,43.87664794921875,24.4903564453125,-116.17279052734375,-33.43638583638584,-17.39291819291819,-35.38559218559219,-1.4814453125,-0.5439453125,1.0537109375,3.35693359375,-28.228759765625,-9.89532470703125,4.048351648351648,-69.57167277167277,64.47374847374847,-0.18359375,1.2900390625,-0.10498046875,-128.265380859375,21.88873291015625,63.60626220703125,-57.57655677655677,-0.29987789987789987,83.51599511599511
26:57.683,0.39697265625,2.16943359375,0.990234375,43.87664794921875,24.4903564453125,-116.17279052734375,-19.941880341880342,-16.943101343101343,-20.39169719169719,-1.78173828125,-0.45556640625,0.8994140625,55.54962158203125,15.045166015625,-37.10174560546875,7.496947496947497,-69.42173382173382,65.22344322344323,0.3330078125,2.009765625,-0.06103515625,30.98297119140625,-17.67730712890625,-3.662109375,-65.22344322344323,-10.045909645909646,20.99145299145299
26:58.658,0.08349609375,2.14892578125,0.20166015625,-25.8331298828125,-39.215087890625,25.84075927734375,-19.791941391941393,-12.894749694749695,-28.338461538461537,-1.6533203125,-0.57470703125,0.8505859375,84.11407470703125,41.8243408203125,-64.056396484375,5.847619047619047,-75.71916971916971,65.07350427350427,-0.544921875,1.9765625,0.02001953125,-91.14837646484375,-204.0863037109375,33.3404541015625,-17.242979242979242,-19.49206349206349,41.683028083028084
26:59.535,0.470703125,1.8935546875,0.00146484375,-35.56060791015625,-135.45989990234375,23.9105224609375,-19.791941391941393,-12.894749694749695,-28.338461538461537,-1.8212890625,-0.37744140625,0.9169921875,60.95123291015625,26.611328125,-28.3355712890625,4.648107448107448,-64.92356532356533,38.234432234432234,0.38916015625,2.0087890625,-0.12646484375,35.2630615234375,-9.0789794921875,2.3956298828125,-17.992673992673993,39.583882783882785,-0.5997557997557997
27:00.364,0.32177734375,2.048828125,0.20654296875,-30.95245361328125,-36.97967529296875,37.98675537109375,-26.83907203907204,3.1487179487179486,-43.63223443223443,-1.8212890625,-0.37744140625,0.9169921875,60.95123291015625,26.611328125,-28.3355712890625,20.39169719169719,-66.57289377289376,40.48351648351648,0.38916015625,2.0087890625,-0.12646484375,35.2630615234375,-9.0789794921875,2.3956298828125,-27.13894993894994,59.67570207570208,23.99023199023199
27:01.242,0.64599609375,1.93359375,0.1142578125,6.99615478515625,-250.0,3.37982177734375,-25.33968253968254,11.545299145299145,-28.188522588522588,-1.5126953125,-0.568359375,0.8603515625,-39.08538818359375,-4.21142578125,18.24188232421875,20.39169719169719,-66.57289377289376,40.48351648351648,-1.28759765625,3.2734375,4.0126953125,20.7672119140625,-30.99822998046875,22.86529541015625,-27.13894993894994,59.67570207570208,23.99023199023199
27:02.070,0.43603515625,2.13720703125,0.36474609375,21.44622802734375,-28.7017822265625,-71.73919677734375,-22.04102564102564,17.54285714285714,-21.741147741147742,-1.78173828125,-0.25537109375,0.876953125,40.03143310546875,5.42449951171875,-25.482177734375,26.389255189255188,-67.17264957264958,46.03125763125763,0.41796875,2.31201171875,-0.67919921875,125.00762939453125,-97.8240966796875,9.8724365234375,-69.27179487179487,40.78339438339438,-31.487179487179485
27:02.948,0.384765625,2.08251953125,0.48583984375,-17.3797607421875,37.65106201171875,45.29571533203125,-32.686691086691084,19.042246642246642,-22.34090354090354,-1.54638671875,-0.4169921875,0.951171875,3.23486328125,-28.50341796875,18.524169921875,30.737484737484735,-65.67326007326007,48.73015873015873,0.08935546875,2.08447265625,0.0673828125,54.840087890625,62.03460693359375,-6.66046142578125,-34.93577533577533,43.18241758241758,-24.29010989010989
27:03.825,0.71142578125,2.2685546875,0.31396484375,-9.10186767578125,105.87310791015625,43.6859130859375,-37.48473748473749,13.494505494505495,-31.787057387057384,-1.771484375,-0.58740234375,1.13916015625,-33.0352783203125,7.598876953125,10.91766357421875,26.23931623931624,-64.02393162393162,52.47863247863248,0.4501953125,2.70458984375,-0.85302734375,-223.1292724609375,98.175048828125,35.09521484375,-39.433943833943836,29.987789987789988,31.337240537240536
27:04.605,0.71142578125,2.2685546875,0.31396484375,-9.10186767578125,105.87310791015625,43.6859130859375,-37.48473748473749,13.494505494505495,-31.787057387057384,-1.546875,-0.36279296875,1.18896484375,-2.11334228515625,22.78900146484375,-5.4168701171875,34.635897435897434,-66.12307692307692,63.873992673992674,0.29931640625,2.34521484375,-0.53076171875,86.151123046875,-24.0936279296875,5.9356689453125,-55.027594627594624,44.98168498168498,-6.147496947496947
27:05.434,0.16552734375,1.91748046875,1.45751953125,33.4320068359375,-98.8616943359375,-5.82122802734375,-28.93821733821734,15.293772893772893,-6.147496947496947,-1.546875,-0.36279296875,1.18896484375,-39.68048095703125,-4.730224609375,44.4488525390625,30.737484737484735,-62.82442002442002,64.62368742368741,0.29931640625,2.34521484375,-0.53076171875,43.02978515625,31.68487548828125,28.38897705078125,-50.979242979242976,34.336019536019535,-19.941880341880342
27:06.360,0.53466796875,2.19287109375,0.8232421875,37.3687744140625,9.91058349609375,-48.88916015625,-47.83052503052503,10.495726495726496,-38.38437118437118,-1.78515625,-0.64794921875,1.1669921875,-39.68048095703125,-4.730224609375,44.4488525390625,29.088156288156288,-55.62735042735043,65.52332112332113,-0.06103515625,2.189453125,0.31005859375,43.02978515625,31.68487548828125,28.38897705078125,-79.01782661782661,42.58266178266178,-37.784615384615385
27:07.287,0.80859375,1.51513671875,0.703125,-5.157470703125,-47.515869140625,-28.11431884765625,-55.027594627594624,17.692796092796094,-41.38315018315018,-1.46142578125,-0.337890625,0.68115234375,-10.1318359375,-23.0865478515625,-3.9825439453125,29.088156288156288,-55.62735042735043,65.52332112332113,0.26123046875,1.27197265625,-0.146484375,-85.14404296875,-21.0113525390625,-99.212646484375,-32.386813186813185,41.38315018315018,-33.43638583638584
27:08.164,0.20556640625,1.9345703125,0.16015625,31.68487548828125,73.84490966796875,22.857666015625,-75.41929181929181,17.842735042735043,-77.96825396825396,-1.77880859375,-0.28857421875,0.74658203125,-59.95941162109375,0.92315673828125,39.7186279296875,27.288888888888888,-49.030036630036626,76.31892551892551,0.275390625,2.01025390625,0.10302734375,-3.34930419921875,27.2979736328125,6.561279296875,-32.386813186813185,41.38315018315018,-33.43638583638584
27:08.944,0.353515625,2.09716796875,0.25732421875,25.35247802734375,88.470458984375,39.37530517578125,-71.82075702075701,-21.29133089133089,-15.593650793650793,-1.71630859375,-0.5322265625,0.919921875,-73.4100341796875,-14.83917236328125,18.24188232421875,34.635897435897434,-52.17875457875458,103.6078144078144,0.3681640625,2.36376953125,-0.4150390625,-152.61077880859375,174.49188232421875,29.4036865234375,-109.0056166056166,8.246642246642246,-25.18974358974359
27:09.724,0.353515625,2.09716796875,0.25732421875,-8.99505615234375,-53.74908447265625,3.66973876953125,-69.72161172161172,-7.796825396825397,-34.635897435897434,-1.56591796875,-0.134765625,1.00732421875,25.0091552734375,13.93890380859375,-14.13726806640625,28.638339438339436,-53.82808302808303,90.71306471306471,0.2841796875,2.04296875,-0.26220703125,59.53216552734375,-5.19561767578125,-5.9967041015625,-110.05518925518925,-5.547741147741148,10.045909645909646
27:10.504,0.36474609375,1.744140625,0.1748046875,-8.99505615234375,-53.74908447265625,3.66973876953125,-69.72161172161172,-7.796825396825397,-34.635897435897434,-1.56591796875,-0.134765625,1.00732421875,-68.99261474609375,0.16021728515625,39.12353515625,11.995115995115995,-59.22588522588522,77.06862026862026,0.2841796875,2.04296875,-0.26220703125,61.58447265625,67.90924072265625,17.20428466796875,-91.16288156288157,-10.045909645909646,36.435164835164834
27:11.284,0.12548828125,1.74609375,0.380859375,29.9530029296875,-45.3948974609375,1.0223388671875,-44.08205128205128,-21.14139194139194,-16.043467643467643,-1.548828125,-0.35498046875,1.0908203125,-68.99261474609375,0.16021728515625,39.12353515625,11.995115995115995,-59.22588522588522,77.06862026862026,0.77392578125,2.52587890625,-0.1767578125,61.58447265625,67.90924072265625,17.20428466796875,-91.16288156288157,-10.045909645909646,36.435164835164834
27:12.113,0.6083984375,2.12744140625,0.07666015625,-54.3670654296875,-40.53497314453125,-88.05084228515625,-38.68424908424908,-18.44249084249084,-17.692796092796094,-2.056640625,-0.3291015625,0.97509765625,52.92510986328125,-2.3040771484375,-26.14593505859375,10.495726495726496,-65.67326007326007,73.76996336996336,-0.20263671875,1.302734375,0.8564453125,0.7171630859375,-91.28570556640625,64.3768310546875,-44.08205128205128,-1.4993894993894994,65.97313797313797
27:12.990,1.83544921875,1.86279296875,-0.6533203125,62.64495849609375,-41.49627685546875,216.9952392578125,-38.98412698412698,-16.64322344322344,-45.28156288156288,-1.84619140625,-0.54296875,0.89453125,-5.06591796875,12.939453125,-2.44903564453125,1.4993894993894994,-66.27301587301586,58.476190476190474,0.25537109375,2.03369140625,-0.14111328125,44.60906982421875,6.46209716796875,3.56292724609375,-57.12673992673992,-2.249084249084249,-7.796825396825397
27:13.819,1.07470703125,-1.57373046875,0.1884765625,20.2789306640625,-50.48370361328125,-6.12640380859375,0.7496947496947497,-26.539194139194137,-24.739926739926737,-1.4326171875,-0.56396484375,1.15869140625,-45.98236083984375,-1.70135498046875,18.463134765625,3.8984126984126983,-67.92234432234432,64.62368742368741,0.7021484375,1.748046875,1.33642578125,13.60321044921875,31.31866455078125,33.26416015625,-31.487179487179485,2.848840048840049,46.33113553113553
27:14.795,1.07470703125,-1.57373046875,0.1884765625,20.93505859375,35.22491455078125,-10.833740234375,50.829304029304026,2.249084249084249,35.23565323565323,-1.76171875,-0.3359375,0.89208984375,7.7362060546875,-22.78900146484375,-21.697998046875,2.998778998778999,-72.12063492063491,67.17264957264958,0.3125,2.2958984375,-1.53369140625,126.2054443359375,-112.60223388671875,-27.679443359375,-58.176312576312576,-5.097924297924298,75.26935286935287
27:15.720,1.123046875,-1.8046875,0.27685546875,-41.68701171875,47.46246337890625,16.845703125,41.23321123321123,-2.848840048840049,40.78339438339438,-1.6435546875,-0.59814453125,0.91162109375,35.37750244140625,3.753662109375,10.6353759765625,7.646886446886446,-73.17020757020757,67.62246642246642,0.40966796875,1.98974609375,0.31201171875,35.07232666015625,-2.8839111328125,-4.21905517578125,-80.66715506715506,1.4993894993894994,3.8984126984126983
27:16.549,1.4833984375,-1.65576171875,-0.09765625,-41.68701171875,47.46246337890625,16.845703125,41.23321123321123,-2.848840048840049,40.78339438339438,-1.6435546875,-0.59814453125,0.91162109375,54.23736572265625,15.98358154296875,-41.4581298828125,10.195848595848595,-76.16898656898657,71.82075702075701,-0.23876953125,1.95751953125,-0.7626953125,17.00592041015625,-239.26544189453125,89.33258056640625,-35.68547008547009,-19.042246642246642,49.62979242979243
27:17.378,1.00634765625,-1.91796875,-0.2177734375,-41.46575927734375,54.840087890625,-2.79998779296875,39.583882783882785,-3.1487179487179486,36.285225885225884,-1.93798828125,-0.42138671875,1.02001953125,54.23736572265625,15.98358154296875,-41.4581298828125,-1.3494505494505493,-66.57289377289376,45.13162393162393,-0.23876953125,1.95751953125,-0.7626953125,17.00592041015625,-239.26544189453125,89.33258056640625,-29.687912087912085,-7.646886446886446,-4.947985347985348
27:18.158,1.6279296875,-1.37255859375,-0.1865234375,-2.410888671875,-7.43865966796875,16.82281494140625,46.78095238095238,4.498168498168498,15.893528693528692,-1.533203125,-0.55810546875,0.8916015625,-11.9476318359375,3.5552978515625,17.730712890625,-1.3494505494505493,-66.57289377289376,45.13162393162393,0.255859375,2.111328125,0.04541015625,13.45062255859375,-10.24627685546875,21.20208740234375,-29.687912087912085,-7.646886446886446,-4.947985347985348
27:18.938,1.15478515625,-1.24755859375,-0.01708984375,63.5528564453125,9.3994140625,10.3912353515625,33.88620268620269,-3.7484737484737485,-11.545299145299145,-1.2587890625,-0.4990234375,0.703125,-21.23260498046875,-28.78570556640625,22.064208984375,11.095482295482295,-62.82442002442002,36.435164835164834,-0.1328125,1.525390625,0.10693359375,-125.152587890625,-139.7857666015625,57.56378173828125,-43.78217338217338,52.47863247863248,-9.446153846153846
27:19.864,1.21533203125,-1.513671875,0.1142578125,-10.55145263671875,-3.753662109375,-14.32037353515625,26.389255189255188,-15.443711843711844,-10.345787545787545,-1.6728515625,-0.70751953125,1.05078125,38.970947265625,38.85650634765625,-31.890869140625,28.03858363858364,-67.02271062271062,49.62979242979243,0.41455078125,2.03076171875,-0.091796875,38.57421875,-18.45550537109375,5.9967041015625,-14.094261294261294,57.87643467643468,42.58266178266178
27:20.742,1.21533203125,-1.513671875,0.1142578125,24.86419677734375,-68.9697265625,7.904052734375,36.88498168498168,-14.244200244200243,3.2986568986568985,-1.48486328125,-0.5732421875,1.02978515625,-66.06292724609375,-4.20379638671875,41.87774658203125,25.489621489621488,-63.27423687423687,48.28034188034188,0.25,1.8544921875,-1.79443359375,41.95404052734375,30.61676025390625,20.80535888671875,-77.51843711843712,32.98656898656898,-49.77973137973138
27:21.571,1.18798828125,-1.48876953125,0.28759765625,24.86419677734375,-68.9697265625,7.904052734375,36.88498168498168,-14.244200244200243,3.2986568986568985,-1.72900390625,-0.29638671875,1.04345703125,19.4244384765625,4.6234130859375,-19.92034912109375,34.336019536019535,-65.37338217338217,61.02515262515262,0.25048828125,2.3310546875,-0.94287109375,130.126953125,-108.4136962890625,-6.82830810546875,-35.38559218559219,36.88498168498168,31.337240537240536
27:22.350,0.92919921875,-1.8740234375,0.50390625,-8.06427001953125,26.71051025390625,-8.84246826171875,27.13894993894994,-21.741147741147742,3.7484737484737485,-1.72900390625,-0.29638671875,1.04345703125,19.4244384765625,4.6234130859375,-19.92034912109375,32.836630036630034,-67.17264957264958,59.37582417582417,0.25048828125,2.3310546875,-0.94287109375,130.126953125,-108.4136962890625,-6.82830810546875,-27.13894993894994,40.78339438339438,26.83907203907204
27:23.179,1.568359375,-1.84814453125,0.55029296875,32.81402587890625,-24.8565673828125,16.326904296875,32.536752136752135,-19.49206349206349,10.945543345543346,-1.84033203125,-0.73095703125,1.35498046875,-30.49468994140625,-23.67401123046875,25.6500244140625,32.836630036630034,-67.17264957264958,59.37582417582417,0.6083984375,1.8662109375,0.32373046875,30.5633544921875,63.16375732421875,17.974853515625,-27.13894993894994,40.78339438339438,26.83907203907204
27:24.008,1.333984375,-1.45947265625,0.478515625,16.326904296875,43.1365966796875,-8.56781005859375,43.18241758241758,-13.794383394383393,9.596092796092796,-1.48388671875,-0.53857421875,0.939453125,2.6397705078125,-26.30615234375,-3.91387939453125,26.83907203907204,-61.924786324786325,55.32747252747252,-0.41943359375,1.41650390625,0.158203125,-90.728759765625,-153.350830078125,29.30450439453125,-61.02515262515262,32.08693528693529,-10.945543345543346
27:24.837,1.048828125,-1.4365234375,0.2587890625,8.81195068359375,13.5040283203125,3.692626953125,41.38315018315018,-23.690354090354088,21.89108669108669,-1.5263671875,-0.3544921875,0.79296875,-1.41143798828125,-16.4794921875,4.17327880859375,34.186080586080585,-61.924786324786325,71.07106227106227,0.1787109375,2.0244140625,0.10205078125,21.73614501953125,-4.53948974609375,13.63372802734375,-37.934554334554335,55.32747252747252,2.6989010989010986
27:25.665,1.048828125,-1.4365234375,0.2587890625,8.81195068359375,13.5040283203125,3.692626953125,67.62246642246642,-20.39169719169719,33.73626373626374,-1.46533203125,-0.453125,0.806640625,-24.23858642578125,-15.98358154296875,-6.072998046875,26.539194139194137,-49.329914529914525,71.37094017094017,-0.02587890625,2.0537109375,-0.79443359375,54.8858642578125,-65.16265869140625,-0.90789794921875,-82.46642246642246,28.03858363858364,-57.12673992673992
27:26.543,1.09814453125,-1.41552734375,0.52099609375,22.72796630859375,-16.13616943359375,-15.4266357421875,67.62246642246642,-20.39169719169719,33.73626373626374,-1.46533203125,-0.453125,0.806640625,-70.64056396484375,-21.4385986328125,42.64068603515625,22.04102564102564,-48.43028083028083,86.36483516483516,-0.02587890625,2.0537109375,-0.79443359375,-5.7830810546875,-1.068115234375,51.8951416015625,-46.03125763125763,32.386813186813185,-41.832967032967034
27:27.323,1.43701171875,-1.40576171875,0.3173828125,47.088623046875,-52.032470703125,14.07623291015625,73.62002442002442,-18.29255189255189,60.87521367521367,-1.5927734375,-0.74560546875,0.8740234375,-70.64056396484375,-21.4385986328125,42.64068603515625,36.135286935286935,-54.27789987789988,100.75897435897436,0.240234375,2.06982421875,0.0888671875,-5.7830810546875,-1.068115234375,51.8951416015625,-114.55335775335774,5.847619047619047,0.4498168498168498
27:28.213,1.29052734375,-1.66943359375,0.24853515625,30.25054931640625,-41.93878173828125,16.01409912109375,59.67570207570208,-29.388034188034187,62.52454212454212,-1.74853515625,-0.51123046875,0.84130859375,-46.85211181640625,-7.36236572265625,30.86090087890625,36.135286935286935,-54.27789987789988,100.75897435897436,0.263671875,2.0576171875,0.0947265625,9.42230224609375,15.49530029296875,1.56402587890625,-114.55335775335774,5.847619047619047,0.4498168498168498
27:29.029,1.2099609375,-1.48583984375,0.42236328125,-5.859375,34.4696044921875,-5.57708740234375,60.57533577533577,-26.389255189255188,45.88131868131868,-1.5390625,-0.5205078125,0.75927734375,24.25384521484375,-19.75250244140625,-21.49200439453125,31.187301587301587,-50.52942612942613,87.26446886446887,0.00048828125,2.6845703125,-0.1337890625,75.98876953125,-48.11859130859375,-13.48876953125,-114.25347985347985,-9.596092796092796,4.348229548229548
27:29.809,1.27587890625,-1.53173828125,0.45263671875,10.30731201171875,-3.11279296875,7.8125,60.275457875457874,-21.741147741147742,42.58266178266178,-1.595703125,-0.5830078125,0.98828125,-12.42828369140625,-11.58905029296875,13.48114013671875,25.639560439560437,-54.27789987789988,82.46642246642246,0.09814453125,2.125,0.3359375,25.177001953125,-25.2838134765625,14.91546630859375,-118.3018315018315,6.597313797313797,-58.92600732600732
27:30.589,1.27587890625,-1.53173828125,0.45263671875,10.30731201171875,-3.11279296875,7.8125,58.626129426129424,-10.195848595848595,40.93333333333333,-1.67333984375,-0.3232421875,0.90576171875,4.119873046875,4.2266845703125,-7.36236572265625,17.242979242979242,-55.47741147741147,76.91868131868132,0.15673828125,2.11328125,-0.21728515625,46.539306640625,-27.2369384765625,-28.43475341796875,-68.07228327228327,-13.344566544566543,65.37338217338217
27:31.418,1.0234375,-1.68017578125,0.189453125,-5.6915283203125,16.77703857421875,-4.302978515625,58.626129426129424,-10.195848595848595,40.93333333333333,-1.67333984375,-0.3232421875,0.90576171875,4.119873046875,4.2266845703125,-7.36236572265625,12.744810744810744,-57.42661782661782,67.62246642246642,0.15673828125,2.11328125,-0.21728515625,46.539306640625,-27.2369384765625,-28.43475341796875,-89.21367521367522,-12.744810744810744,22.34090354090354
27:32.198,1.1650390625,-1.5107421875,0.32763671875,11.71875,-31.99005126953125,6.37054443359375,60.72527472527472,-8.396581196581197,34.485958485958484,-1.55908203125,-0.517578125,0.94091796875,-31.31103515625,-0.0762939453125,20.50018310546875,12.744810744810744,-57.42661782661782,67.62246642246642,-0.18017578125,2.04296875,-0.365234375,76.11083984375,28.86199951171875,-0.7781982421875,-89.21367521367522,-12.744810744810744,22.34090354090354
27:33.027,1.0390625,-1.666015625,0.2470703125,-43.3502197265625,31.036376953125,-16.0064697265625,54.27789987789988,-4.648107448107448,39.13406593406593,-1.62744140625,-0.3515625,1.0634765625,34.11865234375,23.4375,-31.3873291015625,7.197069597069596,-60.57533577533577,66.72283272283272,0.2822265625,2.05810546875,-0.08544921875,38.421630859375,-23.85711669921875,-8.00323486328125,-44.08205128205128,-7.646886446886446,56.526984126984125
27:33.807,1.36328125,-1.5478515625,0.30810546875,18.34869384765625,-51.666259765625,-1.88446044921875,54.877655677655675,-2.249084249084249,33.73626373626374,-1.52880859375,-0.57958984375,1.03564453125,-50.7659912109375,-3.47900390625,22.1710205078125,4.798046398046398,-62.52454212454212,63.724053724053725,-0.26611328125,2.14111328125,-0.5771484375,-111.75537109375,17.99774169921875,9.51385498046875,-50.22954822954823,-2.249084249084249,46.63101343101343
27:34.733,1.36328125,-1.5478515625,0.30810546875,-46.27227783203125,51.9866943359375,-5.401611328125,49.92967032967033,2.848840048840049,29.238095238095237,-1.60498046875,-0.29638671875,0.951171875,33.8897705078125,23.0865478515625,-24.6734619140625,7.197069597069596,-64.17387057387057,57.87643467643468,0.3525390625,2.04248046875,-0.24658203125,49.35455322265625,-5.8135986328125,-0.396728515625,-32.386813186813185,-6.447374847374848,62.52454212454212
27:35.562,1.01318359375,-1.57275390625,0.208984375,-46.27227783203125,51.9866943359375,-5.401611328125,53.97802197802198,1.4993894993894994,31.787057387057384,-1.5595703125,-0.5341796875,0.93701171875,-47.8973388671875,-7.02667236328125,26.702880859375,1.9492063492063492,-68.52210012210011,59.52576312576312,0.2197265625,1.91650390625,-0.8662109375,62.08038330078125,45.44830322265625,1.9683837890625,-26.08937728937729,-1.9492063492063492,58.176312576312576
27:36.488,0.95703125,-1.6357421875,0.3017578125,22.0794677734375,-51.8798828125,2.38037109375,53.97802197802198,1.4993894993894994,31.787057387057384,-1.71484375,-0.27978515625,0.89111328125,9.89532470703125,9.5367431640625,-7.3699951171875,4.947985347985348,-68.67203907203907,64.62368742368741,0.2099609375,2.04638671875,-0.2470703125,59.16595458984375,3.62396240234375,-13.58795166015625,-79.01782661782661,0.0,50.829304029304026
27:37.414,1.021484375,-1.7119140625,-0.10107421875,-36.43035888671875,16.9677734375,-2.5177001953125,47.83052503052503,5.697680097680098,28.488400488400487,-1.71484375,-0.27978515625,0.89111328125,-64.7735595703125,-7.63702392578125,37.23907470703125,0.14993894993894993,-66.57289377289376,56.377045177045176,0.6064453125,1.23974609375,-0.80419921875,8.18634033203125,77.7740478515625,40.71044921875,-91.16288156288157,-2.848840048840049,8.846398046398047
27:38.438,1.29345703125,-1.49169921875,-0.09228515625,34.8663330078125,-60.150146484375,-10.43701171875,52.778510378510376,2.0991452991452992,24.739926739926737,-1.5478515625,-0.46875,0.98193359375,18.69964599609375,19.92034912109375,-11.932373046875,9.895970695970696,-72.87032967032967,68.67203907203907,0.24365234375,2.4140625,-0.650390625,57.12890625,-12.054443359375,3.21197509765625,-31.337240537240536,-11.545299145299145,91.9125763125763
27:39.852,1.466796875,-1.61181640625,0.126953125,46.15020751953125,-62.35504150390625,4.17327880859375,43.18241758241758,-4.1982905982905985,31.187301587301587,-1.5810546875,-0.5703125,1.083984375,-57.281494140625,-10.467529296875,37.29248046875,10.495726495726496,-74.06984126984126,69.57167277167277,-1.09716796875,1.56103515625,0.068359375,-19.10400390625,246.28448486328125,-16.510009765625,-47.230769230769226,-10.795604395604395,74.51965811965812
27:40.827,1.0146484375,-1.6865234375,-0.11767578125,48.675537109375,-69.09942626953125,0.3509521484375,34.186080586080585,-5.397802197802197,27.88864468864469,-1.80712890625,-0.1708984375,0.716796875,-67.95501708984375,-13.6871337890625,33.74481201171875,17.242979242979242,-76.31892551892551,72.27057387057387,0.05810546875,2.08544921875,-0.0595703125,10.6964111328125,14.68658447265625,-7.97271728515625,-67.02271062271062,27.588766788766787,53.228327228327224
27:41.802,1.228515625,-1.51416015625,0.11669921875,34.27886962890625,-62.43896484375,-6.1798095703125,29.238095238095237,-17.54285714285714,11.845177045177044,-1.5224609375,-0.57568359375,1.0654296875,-68.8018798828125,-18.9361572265625,39.39056396484375,29.987789987789988,-70.77118437118438,65.97313797313797,0.056640625,2.14453125,-1.0576171875,-93.9788818359375,27.35137939453125,42.94586181640625,-69.12185592185592,27.588766788766787,50.07960927960928
27:42.680,1.228515625,-1.51416015625,0.11669921875,34.27886962890625,-62.43896484375,-6.1798095703125,23.54041514041514,-14.694017094017093,2.249084249084249,-1.71484375,-0.21533203125,0.9384765625,38.8946533203125,15.594482421875,-33.51593017578125,33.28644688644688,-71.52087912087912,63.57411477411477,0.1357421875,2.23486328125,-0.3466796875,66.436767578125,-5.7525634765625,-35.5072021484375,-7.646886446886446,44.38192918192918,78.86788766788767
27:43.557,0.96533203125,-1.82470703125,-0.2119140625,-37.7960205078125,45.9136962890625,-7.04193115234375,23.54041514041514,-14.694017094017093,2.249084249084249,-1.63330078125,-0.607421875,1.150390625,-52.80303955078125,-0.8544921875,30.03692626953125,29.238095238095237,-72.27057387057387,60.425396825396824,0.15673828125,2.05517578125,0.50341796875,58.9752197265625,-81.6650390625,39.154052734375,-10.345787545787545,55.17753357753357,78.56800976800976
27:44.629,1.400390625,-1.62890625,0.11083984375,27.587890625,-34.66796875,4.8980712890625,18.44249084249084,-15.893528693528692,-13.194627594627594,-1.7177734375,-0.41455078125,1.03955078125,-7.42340087890625,-24.2919921875,8.17108154296875,25.03980463980464,-67.32258852258852,45.13162393162393,-0.24951171875,1.10400390625,0.14501953125,-74.951171875,-24.749755859375,33.40911865234375,-67.02271062271062,36.73504273504273,-37.634676434676436
27:45.409,1.3076171875,-1.8232421875,0.171875,7.1563720703125,-8.38470458984375,1.48773193359375,18.44249084249084,-15.893528693528692,-13.194627594627594,-1.7177734375,-0.41455078125,1.03955078125,-7.42340087890625,-24.2919921875,8.17108154296875,29.987789987789988,-66.87277167277168,53.37826617826617,-0.24951171875,1.10400390625,0.14501953125,-74.951171875,-24.749755859375,33.40911865234375,-37.18485958485958,50.22954822954823,-5.247863247863248
27:46.287,0.876953125,-1.76513671875,0.30029296875,-17.5018310546875,14.617919921875,-13.1988525390625,21.14139194139194,-22.79072039072039,-3.4485958485958483,-1.7041015625,-0.564453125,1.06298828125,24.566650390625,18.3563232421875,-19.1802978515625,29.987789987789988,-66.87277167277168,53.37826617826617,0.31005859375,2.04931640625,-0.0751953125,38.32244873046875,-5.63812255859375,0.091552734375,-37.18485958485958,50.22954822954823,-5.247863247863248
27:47.115,-0.67529296875,-1.67919921875,0.75927734375,-7.8125,-25.45166015625,55.6488037109375,40.33357753357753,-13.044688644688645,16.793162393162394,-1.3642578125,-0.65234375,1.095703125,-63.4765625,-8.1329345703125,45.22705078125,29.238095238095237,-63.873992673992674,57.27667887667887,0.03271484375,1.85302734375,-1.24560546875,-37.83416748046875,51.21612548828125,36.73553466796875,-34.186080586080585,31.637118437118435,31.187301587301587
27:47.944,-0.3525390625,-1.861328125,0.46826171875,-23.33831787109375,-31.6925048828125,-32.9132080078125,43.482295482295484,2.249084249084249,44.68180708180708,-1.63232421875,-0.181640625,0.99072265625,16.74652099609375,16.7083740234375,-6.81304931640625,35.68547008547009,-68.22222222222221,68.52210012210011,0.314453125,2.22412109375,-0.482421875,79.7576904296875,-15.26641845703125,-1.04522705078125,-62.97435897435897,38.53431013431013,2.848840048840049
27:48.773,-0.3525390625,-1.861328125,0.46826171875,4.5166015625,-55.51910400390625,-28.99169921875,54.27789987789988,2.0991452991452992,36.435164835164834,-1.6435546875,-0.6748046875,1.06298828125,-36.96441650390625,1.8768310546875,25.41351318359375,23.09059829059829,-61.32503052503052,52.628571428571426,0.189453125,1.9677734375,0.44189453125,38.1622314453125,-41.1529541015625,35.9954833984375,-46.93089133089133,34.336019536019535,-9.895970695970696
27:49.651,1.38232421875,-1.5078125,0.32666015625,4.5166015625,-55.51910400390625,-28.99169921875,49.329914529914525,-27.13894993894994,14.993894993894994,-1.98974609375,-0.27978515625,1.18505859375,-21.62933349609375,-23.20098876953125,-27.099609375,31.487179487179485,-55.027594627594624,66.27301587301586,0.33349609375,1.6552734375,-0.314453125,53.81011962890625,59.2498779296875,-52.9327392578125,-70.77118437118438,42.58266178266178,-35.38559218559219
27:50.479,0.82373046875,-2.14208984375,-0.96533203125,7.77435302734375,10.345458984375,-32.65380859375,49.329914529914525,-27.13894993894994,14.993894993894994,-1.98974609375,-0.27978515625,1.18505859375,-46.966552734375,-33.905029296875,67.413330078125,28.638339438339436,-45.73137973137973,69.72161172161172,0.33349609375,1.6552734375,-0.314453125,18.73016357421875,26.55792236328125,11.84844970703125,-15.893528693528692,40.033699633699634,-18.892307692307693
27:51.259,1.5068359375,-1.0615234375,-0.41552734375,68.13812255859375,-33.22601318359375,13.74053955078125,49.77973137973138,-40.78339438339438,-29.238095238095237,-1.46240234375,-0.37646484375,0.7041015625,-46.966552734375,-33.905029296875,67.413330078125,28.638339438339436,-45.73137973137973,69.72161172161172,0.4169921875,2.0068359375,0.20458984375,18.73016357421875,26.55792236328125,11.84844970703125,-15.893528693528692,40.033699633699634,-18.892307692307693
27:52.088,1.798828125,-0.85888671875,-0.791015625,15.106201171875,24.444580078125,12.02392578125,48.88009768009768,-36.73504273504273,6.747252747252747,-1.56494140625,-0.76953125,0.46337890625,-4.11224365234375,-26.5045166015625,-6.35528564453125,29.83785103785104,-50.52942612942613,83.66593406593407,-0.056640625,1.90283203125,-0.51318359375,-235.6414794921875,-12.0697021484375,29.44183349609375,-123.0998778998779,-1.9492063492063492,-9.895970695970696
27:52.917,1.3125,-1.00341796875,-0.55224609375,-55.21392822265625,-4.0283203125,-28.55682373046875,50.37948717948718,-22.19096459096459,3.7484737484737485,-1.5966796875,-0.17626953125,0.8330078125,17.84515380859375,22.9949951171875,-12.71820068359375,14.694017094017093,-56.526984126984125,74.81953601953602,0.11865234375,2.400390625,-0.53955078125,97.37396240234375,-15.1519775390625,-12.0391845703125,-100.9089133089133,-2.0991452991452992,-22.64078144078144
27:53.697,1.3125,-1.00341796875,-0.55224609375,-55.21392822265625,-4.0283203125,-28.55682373046875,49.329914529914525,-13.194627594627594,10.495726495726496,-1.89501953125,-0.65380859375,1.5390625,10.52093505859375,-18.73779296875,20.14923095703125,7.946764346764346,-64.17387057387057,69.87155067155066,0.2666015625,2.1337890625,0.23486328125,56.57958984375,-17.21954345703125,6.15692138671875,-71.82075702075701,-2.998778998778999,36.88498168498168
27:54.525,1.841796875,-1.55322265625,-0.2314453125,16.876220703125,-4.058837890625,24.69635009765625,49.329914529914525,-13.194627594627594,10.495726495726496,-1.89501953125,-0.65380859375,1.5390625,-4.61578369140625,19.95086669921875,0.8544921875,7.496947496947497,-71.52087912087912,74.06984126984126,0.2666015625,2.1337890625,0.23486328125,-219.05517578125,176.47552490234375,13.60321044921875,-31.487179487179485,-1.9492063492063492,78.86788766788767
27:55.305,1.2900390625,-1.1875,-0.3740234375,-52.00958251953125,2.12860107421875,-12.786865234375,50.829304029304026,-5.997557997557998,29.388034188034187,-1.36962890625,-0.3994140625,1.21826171875,-4.61578369140625,19.95086669921875,0.8544921875,2.6989010989010986,-70.62124542124542,64.47374847374847,0.09375,2.9892578125,-1.42041015625,-219.05517578125,176.47552490234375,13.60321044921875,-83.96581196581197,-1.0495726495726496,31.936996336996337
27:56.281,1.88330078125,-1.060546875,-0.4267578125,-0.77056884765625,-23.65875244140625,-1.80816650390625,49.62979242979243,-4.048351648351648,18.29255189255189,-1.76025390625,-0.42626953125,1.03955078125,9.033203125,-0.3509521484375,-9.6282958984375,2.6989010989010986,-70.62124542124542,64.47374847374847,-0.1650390625,2.41748046875,-1.01513671875,131.1798095703125,-68.73321533203125,-18.3258056640625,-83.96581196581197,-1.0495726495726496,31.936996336996337
27:57.158,1.5302734375,-0.6533203125,-0.673828125,-2.73895263671875,21.20208740234375,39.42108154296875,41.23321123321123,-11.845177045177044,21.741147741147742,-1.45703125,-0.33203125,0.6142578125,24.48272705078125,-11.05499267578125,-1.251220703125,7.646886446886446,-73.91990231990232,71.82075702075701,0.3330078125,2.2412109375,0.25830078125,-12.74871826171875,-67.92449951171875,23.162841796875,-88.3140415140415,5.247863247863248,-10.795604395604395
27:58.036,2.14453125,-0.55224609375,-0.77734375,-61.65313720703125,41.3818359375,39.12353515625,38.234432234432234,-10.645665445665445,15.743589743589743,-1.55126953125,-0.67236328125,0.70849609375,61.19537353515625,6.9122314453125,-40.55023193359375,11.995115995115995,-76.16898656898657,71.37094017094017,-1.4716796875,1.78662109375,-0.64111328125,-37.39166259765625,-250.0,134.34600830078125,-16.193406593406593,-18.742368742368743,63.27423687423687
27:58.816,1.47705078125,-0.24658203125,-0.7216796875,27.96173095703125,-2.13623046875,13.43536376953125,25.78949938949939,-5.547741147741148,-20.99145299145299,-1.43798828125,-0.537109375,0.732421875,13.49639892578125,-1.22833251953125,-9.5367431640625,1.799267399267399,-64.62368742368741,41.08327228327228,0.3955078125,2.04638671875,-0.00390625,18.31817626953125,-40.58837890625,0.51116943359375,-9.446153846153846,23.84029304029304,4.498168498168498
27:59.644,1.47705078125,-0.24658203125,-0.7216796875,27.96173095703125,-2.13623046875,13.43536376953125,6.147496947496947,-10.195848595848595,-36.435164835164834,-1.52978515625,-0.5703125,0.89990234375,-31.33392333984375,-6.88934326171875,22.03369140625,16.793162393162394,-62.97435897435897,38.38437118437118,-0.513671875,2.72509765625,-1.111328125,-165.59600830078125,53.9093017578125,32.3333740234375,-44.08205128205128,57.12673992673992,9.296214896214895
28:00.619,1.61767578125,-0.53759765625,-0.60205078125,32.76824951171875,-33.38623046875,-20.355224609375,1.1995115995115995,-17.992673992673993,-31.936996336996337,-1.73876953125,-0.26806640625,0.90625,54.4891357421875,26.2908935546875,-40.2679443359375,28.03858363858364,-66.57289377289376,46.18119658119658,-0.1259765625,2.9345703125,0.1962890625,127.14385986328125,-130.88226318359375,-1.312255859375,-70.32136752136752,46.03125763125763,-23.24053724053724
28:01.545,1.85205078125,-0.708984375,-0.67724609375,-96.2371826171875,13.29803466796875,7.2479248046875,1.1995115995115995,-17.992673992673993,-31.936996336996337,-1.73876953125,-0.26806640625,0.90625,9.246826171875,-21.01898193359375,15.40374755859375,30.887423687423688,-67.02271062271062,51.72893772893773,-0.1259765625,2.9345703125,0.1962890625,26.08489990234375,-19.37103271484375,0.02288818359375,-53.97802197802198,46.48107448107448,-32.386813186813185
28:02.423,2.12548828125,-0.193359375,-0.59619140625,1.15966796875,-26.8096923828125,14.12200927734375,-10.345787545787545,-19.64200244200244,-28.03858363858364,-1.7294921875,-0.5859375,0.93115234375,-38.79547119140625,-4.66156005859375,9.63592529296875,33.58632478632479,-64.92356532356533,59.37582417582417,0.38623046875,2.07177734375,0.2607421875,-194.9920654296875,120.14007568359375,45.31097412109375,-37.03492063492063,31.637118437118435,35.38559218559219
28:03.301,1.83203125,-0.3349609375,-0.81640625,46.50115966796875,10.93292236328125,-7.83538818359375,-9.296214896214895,-22.19096459096459,-23.54041514041514,-1.58251953125,-0.82373046875,0.8681640625,-38.79547119140625,-4.66156005859375,9.63592529296875,34.336019536019535,-72.72039072039071,78.71794871794872,-0.03955078125,2.1953125,-0.77294921875,-194.9920654296875,120.14007568359375,45.31097412109375,-35.08571428571428,46.33113553113553,37.33479853479853
28:04.178,1.70556640625,-0.4306640625,-0.884765625,-16.2353515625,-18.82171630859375,-29.86907958984375,8.396581196581197,-25.03980463980464,-3.8984126984126983,-1.822265625,-0.177734375,0.81640625,-3.70025634765625,13.58795166015625,-3.12042236328125,34.336019536019535,-72.72039072039071,78.71794871794872,0.19775390625,2.03369140625,-0.27783203125,53.28369140625,-3.85284423828125,0.98419189453125,-35.08571428571428,46.33113553113553,37.33479853479853
28:05.055,1.76416015625,-0.41748046875,-0.9150390625,93.69659423828125,-15.93780517578125,-45.3948974609375,-8.546520146520146,-21.14139194139194,-30.737484737484735,-1.5810546875,-0.60107421875,1.0283203125,-89.2486572265625,-40.10009765625,50.11749267578125,29.088156288156288,-64.47374847374847,57.42661782661782,-0.05517578125,1.875,-0.322265625,-50.0946044921875,162.54425048828125,-14.2669677734375,-50.22954822954823,33.58632478632479,-10.495726495726496
28:05.884,1.65869140625,-0.5283203125,-1.2978515625,59.539794921875,-22.89581298828125,-34.5611572265625,-8.246642246642246,-28.188522588522588,-47.83052503052503,-1.9599609375,-0.05810546875,0.62109375,-71.6552734375,-9.490966796875,39.03961181640625,32.98656898656898,-59.22588522588522,66.87277167277168,-0.048828125,2.07421875,-0.02490234375,-2.349853515625,12.09259033203125,-9.45281982421875,-87.86422466422466,21.14139194139194,-53.97802197802198
28:06.713,1.65869140625,-0.5283203125,-1.2978515625,73.87542724609375,-26.611328125,-45.135498046875,19.19218559218559,-30.887423687423688,-44.83174603174603,-1.53564453125,-0.654296875,0.86572265625,-91.12548828125,-9.48333740234375,34.58404541015625,12.444932844932845,-49.030036630036626,56.97680097680097,-0.25439453125,2.03759765625,-1.1279296875,70.556640625,44.10552978515625,22.216796875,-84.86544566544566,-11.695238095238095,-40.93333333333333
