time,hand_accelerometer_x,hand_accelerometer_y,hand_accelerometer_z,hand_gyroscope_x,hand_gyroscope_y,hand_gyroscope_z,hand_magnetometer_x,hand_magnetometer_y,hand_magnetometer_z,ankle_accelerometer_x,ankle_accelerometer_y,ankle_accelerometer_z,ankle_gyroscope_x,ankle_gyroscope_y,ankle_gyroscope_z,ankle_magnetometer_x,ankle_magnetometer_y,ankle_magnetometer_z,chest_accelerometer_x,chest_accelerometer_y,chest_accelerometer_z,chest_gyroscope_x,chest_gyroscope_y,chest_gyroscope_z,chest_magnetometer_x,chest_magnetometer_y,chest_magnetometer_z
08:36.106,2.052734375,0.25146484375,0.40478515625,1.6021728515625,-11.41357421875,-0.48065185546875,-10.195848595848595,-11.245421245421245,5.547741147741148,-1.8115234375,-0.64990234375,0.31201171875,-4.9285888671875,0.57220458984375,1.06048583984375,34.186080586080585,-68.52210012210011,75.26935286935287,0.1015625,2.04443359375,-0.1416015625,-0.90789794921875,0.96893310546875,1.4495849609375,-61.02515262515262,27.438827838827837,41.832967032967034
08:36.887,2.09375,0.24658203125,0.16943359375,-1.96075439453125,9.765625,-0.45013427734375,-13.644444444444444,-11.695238095238095,-0.8996336996336995,-1.8134765625,-0.6376953125,0.3427734375,-3.82232666015625,0.42724609375,1.068115234375,37.33479853479853,-69.12185592185592,77.36849816849816,0.1025390625,2.04833984375,-0.13134765625,-1.06048583984375,0.75531005859375,1.4801025390625,-60.87521367521367,26.539194139194137,42.73260073260073
08:37.715,2.09375,0.24658203125,0.16943359375,0.6256103515625,16.754150390625,1.739501953125,-13.944322344322345,-12.744810744810744,-4.648107448107448,-1.810546875,-0.6181640625,0.34716796875,-3.0517578125,0.3662109375,1.85394287109375,37.784615384615385,-69.87155067155066,77.06862026862026,0.1015625,2.0537109375,-0.14306640625,-0.9002685546875,1.0986328125,1.3427734375,-61.02515262515262,25.18974358974359,40.78339438339438
08:38.495,2.04443359375,0.24755859375,0.3818359375,0.6256103515625,16.754150390625,1.739501953125,-13.944322344322345,-12.744810744810744,-4.648107448107448,-1.8193359375,-0.6259765625,0.35205078125,-2.02178955078125,-0.29754638671875,0.9765625,35.53553113553114,-67.77240537240537,75.71916971916971,0.1015625,2.05322265625,-0.13525390625,-1.04522705078125,0.66375732421875,1.50299072265625,-59.825641025641026,28.338461538461537,43.33235653235653
08:39.421,1.21923828125,0.16943359375,1.71630859375,-8.91876220703125,42.2515869140625,-0.2899169921875,-13.194627594627594,-12.594871794871795,-1.0495726495726496,-1.8193359375,-0.6259765625,0.35205078125,-3.56292724609375,1.312255859375,0.54931640625,35.08571428571428,-68.67203907203907,76.16898656898657,0.1015625,2.05322265625,-0.13525390625,-1.190185546875,1.03759765625,1.64794921875,-59.37582417582417,26.23931623931624,44.08205128205128
08:40.250,1.61474609375,0.19189453125,1.3076171875,-0.09918212890625,-10.33782958984375,-1.2664794921875,-4.1982905982905985,-1.3494505494505493,25.639560439560437,-1.8076171875,-0.61767578125,0.34033203125,-3.56292724609375,1.312255859375,0.54931640625,35.08571428571428,-68.67203907203907,76.16898656898657,0.09375,2.04931640625,-0.1376953125,-1.190185546875,1.03759765625,1.64794921875,-59.37582417582417,26.23931623931624,44.08205128205128
08:41.079,1.8544921875,0.26904296875,1.046875,-0.946044921875,-9.063720703125,2.14385986328125,-5.397802197802197,-4.648107448107448,18.29255189255189,-1.826171875,-0.6142578125,0.3662109375,-2.9296875,1.33514404296875,1.556396484375,34.78583638583638,-68.52210012210011,77.81831501831502,0.09912109375,2.044921875,-0.13037109375,-1.19781494140625,0.823974609375,1.52587890625,-60.87521367521367,26.23931623931624,44.83174603174603
08:41.908,1.79833984375,0.25146484375,0.9560546875,-1.251220703125,-0.64849853515625,-1.1138916015625,-5.997557997557998,-9.296214896214895,13.494505494505495,-1.81640625,-0.6279296875,0.3798828125,-3.83758544921875,2.685546875,0.4425048828125,35.68547008547009,-67.92234432234432,77.51843711843712,0.1005859375,2.05126953125,-0.1357421875,-1.01470947265625,0.75531005859375,1.1138916015625,-60.125518925518925,26.23931623931624,40.93333333333333
08:42.688,1.79833984375,0.25146484375,0.9560546875,-0.46539306640625,-0.7171630859375,-0.8087158203125,-8.696459096459096,-8.096703296703296,11.995115995115995,-1.796875,-0.6318359375,0.37939453125,-3.66973876953125,3.33404541015625,-0.732421875,36.285225885225884,-68.82197802197803,76.01904761904761,0.09033203125,2.05322265625,-0.13916015625,-1.708984375,-0.67901611328125,2.3651123046875,-58.92600732600732,27.738705738705736,42.88253968253968
08:43.468,1.73291015625,0.25,1.09423828125,-0.46539306640625,-0.7171630859375,-0.8087158203125,-8.696459096459096,-8.096703296703296,11.995115995115995,-1.796875,-0.6318359375,0.37939453125,-2.50244140625,11.75689697265625,-0.3814697265625,35.38559218559219,-68.22222222222221,76.91868131868132,0.09033203125,2.05322265625,-0.13916015625,-1.28173828125,0.42724609375,1.9378662109375,-58.476190476190474,25.639560439560437,42.58266178266178
08:44.248,1.81982421875,0.251953125,0.9150390625,-2.7618408203125,-5.462646484375,-0.8697509765625,-7.496947496947497,-7.197069597069596,14.544078144078144,-1.86474609375,-0.6474609375,0.00341796875,-2.50244140625,11.75689697265625,-0.3814697265625,35.38559218559219,-68.22222222222221,76.91868131868132,0.1220703125,2.04638671875,-0.13525390625,-1.28173828125,0.42724609375,1.9378662109375,-58.476190476190474,25.639560439560437,42.58266178266178
08:45.028,1.8076171875,0.26123046875,0.986328125,-1.2054443359375,2.777099609375,-0.1068115234375,-10.645665445665445,-7.946764346764346,8.846398046398047,-1.83984375,-0.66259765625,-0.03076171875,-3.88336181640625,-0.96893310546875,0.63323974609375,32.686691086691084,-68.82197802197803,65.52332112332113,0.12646484375,2.04541015625,-0.12744140625,-0.80108642578125,0.885009765625,1.53350830078125,-59.825641025641026,26.83907203907204,41.98290598290598
08:45.856,1.78759765625,0.27001953125,1.015625,-0.732421875,0.08392333984375,-0.152587890625,-12.744810744810744,-8.246642246642246,7.496947496947497,-1.82080078125,-0.66650390625,0.009765625,-3.1585693359375,-1.1749267578125,1.44195556640625,30.437606837606836,-67.77240537240537,63.724053724053725,0.13232421875,2.04052734375,-0.138671875,-0.67901611328125,0.96893310546875,1.27410888671875,-59.825641025641026,26.23931623931624,41.98290598290598
08:46.636,1.78759765625,0.27001953125,1.015625,-0.732421875,0.08392333984375,-0.152587890625,-12.894749694749695,-9.146275946275946,11.395360195360196,-1.84033203125,-0.6796875,0.0185546875,-4.00543212890625,-0.335693359375,3.204345703125,32.536752136752135,-68.22222222222221,65.67326007326007,0.1064453125,2.04638671875,-0.1376953125,-0.946044921875,1.6937255859375,1.15966796875,-60.125518925518925,28.03858363858364,42.28278388278388
08:47.417,1.78125,0.26220703125,1.01123046875,-1.2054443359375,1.33514404296875,0.274658203125,-12.894749694749695,-9.146275946275946,11.395360195360196,-1.84033203125,-0.6796875,0.0185546875,-2.18963623046875,1.12152099609375,1.2969970703125,32.686691086691084,-68.07228327228327,67.62246642246642,0.1064453125,2.04638671875,-0.1376953125,-0.8544921875,1.10626220703125,1.65557861328125,-58.92600732600732,27.13894993894994,42.88253968253968
08:48.197,1.76953125,0.2587890625,1.01904296875,-1.251220703125,0.7476806640625,-0.19073486328125,-11.845177045177044,-9.146275946275946,12.294993894993894,-1.84033203125,-0.666015625,-0.041015625,-2.18963623046875,1.12152099609375,1.2969970703125,32.686691086691084,-68.07228327228327,67.62246642246642,0.12939453125,2.0458984375,-0.12744140625,-0.8544921875,1.10626220703125,1.65557861328125,-58.92600732600732,27.13894993894994,42.88253968253968
08:49.025,1.779296875,0.26318359375,1.03515625,-1.434326171875,1.48773193359375,-0.0762939453125,-10.795604395604395,-8.846398046398047,12.294993894993894,-1.841796875,-0.66748046875,-0.0224609375,-1.9683837890625,-1.312255859375,1.27410888671875,31.637118437118435,-65.52332112332113,65.52332112332113,0.12939453125,2.048828125,-0.12939453125,-1.33514404296875,0.6256103515625,1.85394287109375,-60.275457875457874,27.438827838827837,42.13284493284493
08:49.854,1.76708984375,0.25830078125,1.0595703125,-0.58746337890625,0.9002685546875,0.28228759765625,-12.294993894993894,-8.846398046398047,11.395360195360196,-1.853515625,-0.66357421875,-0.001953125,-4.94384765625,-1.62506103515625,2.3345947265625,31.936996336996337,-67.77240537240537,65.07350427350427,0.1240234375,2.04248046875,-0.140625,-0.95367431640625,0.75531005859375,1.24359130859375,-59.22588522588522,28.188522588522588,43.63223443223443
08:50.634,1.76708984375,0.25830078125,1.0595703125,-0.58746337890625,0.9002685546875,0.28228759765625,-14.244200244200243,-8.546520146520146,11.845177045177044,-1.84912109375,-0.65478515625,-0.00537109375,-1.94549560546875,0.34332275390625,2.70843505859375,31.936996336996337,-68.82197802197803,66.87277167277168,0.125,2.05126953125,-0.119140625,-1.01470947265625,0.60272216796875,1.50299072265625,-60.87521367521367,26.23931623931624,42.28278388278388
08:51.463,1.7412109375,0.26171875,1.056640625,-1.0833740234375,0.95367431640625,0.02288818359375,-14.244200244200243,-8.546520146520146,11.845177045177044,-1.84912109375,-0.65478515625,-0.00537109375,-5.767822265625,1.09100341796875,0.61798095703125,31.936996336996337,-68.52210012210011,65.52332112332113,0.125,2.05126953125,-0.119140625,-0.92315673828125,1.03759765625,1.35040283203125,-60.87521367521367,25.78949938949939,42.28278388278388
08:52.243,1.75927734375,0.25732421875,1.06787109375,-1.0833740234375,1.57928466796875,0.244140625,-15.293772893772893,-9.746031746031745,11.545299145299145,-1.82275390625,-0.63525390625,0.013671875,-5.767822265625,1.09100341796875,0.61798095703125,31.936996336996337,-68.52210012210011,65.52332112332113,0.12939453125,2.05029296875,-0.138671875,-0.92315673828125,1.03759765625,1.35040283203125,-60.87521367521367,25.78949938949939,42.28278388278388
08:53.023,1.7412109375,0.25732421875,1.07763671875,-1.19781494140625,-0.4119873046875,0.02288818359375,-12.594871794871795,-9.446153846153846,14.094261294261294,-1.84326171875,-0.65283203125,0.01171875,-2.34222412109375,2.03704833984375,-0.335693359375,32.98656898656898,-66.57289377289376,66.12307692307692,0.12939453125,2.0498046875,-0.14208984375,-0.60272216796875,0.4425048828125,1.60980224609375,-59.975579975579976,25.639560439560437,44.23199023199023
08:53.851,1.76806640625,0.2705078125,1.0712890625,-1.15966796875,2.03704833984375,-0.16021728515625,-12.744810744810744,-9.746031746031745,12.894749694749695,-1.84326171875,-0.64306640625,-0.001953125,-3.19671630859375,-0.335693359375,1.0223388671875,33.88620268620269,-67.92234432234432,67.02271062271062,0.13671875,2.04638671875,-0.12353515625,-0.92315673828125,0.9765625,1.708984375,-62.074725274725274,24.88986568986569,43.18241758241758
08:54.631,1.76806640625,0.2705078125,1.0712890625,-1.15966796875,2.03704833984375,-0.16021728515625,-11.995115995115995,-7.946764346764346,12.594871794871795,-1.845703125,-0.65234375,-0.01708984375,-2.5787353515625,-1.99127197265625,0.91552734375,32.686691086691084,-67.77240537240537,66.87277167277168,0.12646484375,2.04931640625,-0.12255859375,-0.8087158203125,0.54931640625,1.41143798828125,-60.125518925518925,24.739926739926737,42.28278388278388
08:55.460,1.748046875,0.26953125,1.06982421875,-1.1749267578125,1.2359619140625,0.06103515625,-11.995115995115995,-7.946764346764346,12.594871794871795,-1.845703125,-0.65234375,-0.01708984375,-4.08935546875,-1.76239013671875,1.53350830078125,32.686691086691084,-67.32258852258852,66.87277167277168,0.12646484375,2.04931640625,-0.12255859375,-0.90789794921875,1.04522705078125,1.53350830078125,-60.275457875457874,24.88986568986569,42.58266178266178
08:56.240,1.7412109375,0.267578125,1.0849609375,-1.21307373046875,2.22015380859375,-0.32806396484375,-14.843956043956043,-10.345787545787545,11.845177045177044,-1.83837890625,-0.65087890625,-0.0146484375,-4.08935546875,-1.76239013671875,1.53350830078125,32.686691086691084,-67.32258852258852,66.87277167277168,0.1181640625,2.0537109375,-0.14111328125,-0.90789794921875,1.04522705078125,1.53350830078125,-60.275457875457874,24.88986568986569,42.58266178266178
08:57.069,1.7216796875,0.2958984375,1.15771484375,-1.45721435546875,1.953125,-0.49591064453125,-13.794383394383393,-7.946764346764346,14.993894993894994,-1.80224609375,-0.69091796875,0.07861328125,-15.167236328125,-12.48931884765625,1.93023681640625,32.686691086691084,-67.02271062271062,66.87277167277168,0.1240234375,2.0478515625,-0.12109375,-1.41143798828125,2.43377685546875,1.52587890625,-59.825641025641026,25.78949938949939,41.98290598290598
08:57.947,2.0400390625,0.25390625,0.07958984375,-1.97601318359375,-7.91168212890625,1.41143798828125,-14.394139194139193,-8.396581196581197,14.094261294261294,-1.7939453125,-0.68359375,0.2890625,-3.89862060546875,-0.54931640625,0.213623046875,34.635897435897434,-67.92234432234432,71.67081807081807,0.1767578125,2.0537109375,-0.10107421875,-0.823974609375,0.67901611328125,1.74713134765625,-59.975579975579976,25.18974358974359,41.533089133089135
08:58.775,2.05419921875,0.25634765625,0.0673828125,0.5645751953125,1.25885009765625,0.54168701171875,-7.946764346764346,-15.593650793650793,-1.9492063492063492,-1.78857421875,-0.7080078125,0.29443359375,-1.83868408203125,-1.89971923828125,0.9765625,39.733821733821735,-69.42173382173382,79.01782661782661,0.1669921875,2.0400390625,-0.10498046875,-1.09100341796875,0.7476806640625,1.62506103515625,-60.275457875457874,27.13894993894994,42.88253968253968
08:59.653,2.05419921875,0.25634765625,0.0673828125,-8.93402099609375,30.93719482421875,1.16729736328125,-10.945543345543346,-16.49328449328449,-2.848840048840049,-1.83984375,-0.66796875,0.28857421875,-5.86700439453125,-0.640869140625,2.7618408203125,39.13406593406593,-67.77240537240537,81.26691086691086,0.17578125,2.0439453125,-0.11181640625,-0.9307861328125,0.37384033203125,1.53350830078125,-61.17509157509157,26.539194139194137,42.28278388278388
09:00.482,2.07373046875,0.287109375,0.2421875,-8.93402099609375,30.93719482421875,1.16729736328125,-10.945543345543346,-16.49328449328449,-2.848840048840049,-1.83984375,-0.66796875,0.28857421875,-2.044677734375,-1.9683837890625,0.8392333984375,38.68424908424908,-68.67203907203907,80.06739926739927,0.17578125,2.0439453125,-0.11181640625,-0.84686279296875,0.732421875,1.556396484375,-60.57533577533577,26.23931623931624,43.78217338217338
09:01.310,1.6845703125,0.1884765625,0.95166015625,-1.28173828125,-35.86578369140625,-1.739501953125,-8.546520146520146,-17.842735042735043,0.0,-1.81689453125,-0.70556640625,0.27197265625,-2.044677734375,-1.9683837890625,0.8392333984375,39.733821733821735,-67.92234432234432,78.26813186813186,0.1669921875,2.05810546875,-0.11279296875,-0.84686279296875,0.732421875,1.556396484375,-61.47496947496947,26.389255189255188,43.93211233211233
09:02.188,1.95703125,0.19287109375,0.38818359375,-2.25067138671875,5.401611328125,1.983642578125,-6.297435897435897,-10.945543345543346,16.49328449328449,-1.818359375,-0.67529296875,0.30615234375,-2.49481201171875,1.35040283203125,0.45013427734375,39.733821733821735,-67.92234432234432,78.26813186813186,0.1669921875,2.0458984375,-0.12841796875,-0.74005126953125,0.98419189453125,1.21307373046875,-61.47496947496947,26.389255189255188,43.93211233211233
09:02.981,1.6474609375,0.1826171875,1.30859375,-2.08282470703125,7.30133056640625,0.7171630859375,-7.946764346764346,-14.544078144078144,7.946764346764346,-1.80078125,-0.7138671875,0.1474609375,-3.7689208984375,3.07464599609375,1.93023681640625,39.583882783882785,-69.12185592185592,79.46764346764347,0.16943359375,2.04248046875,-0.10791015625,-0.72479248046875,1.0223388671875,1.56402587890625,-60.57533577533577,25.78949938949939,42.73260073260073
09:03.845,1.521484375,0.16015625,1.42626953125,-3.05938720703125,7.07244873046875,0.70953369140625,-0.8996336996336995,-6.597313797313797,26.389255189255188,-1.81787109375,-0.69189453125,0.20751953125,-3.570556640625,-0.396728515625,1.068115234375,40.033699633699634,-67.47252747252747,77.96825396825396,0.17529296875,2.0478515625,-0.1064453125,-0.72479248046875,0.6866455078125,1.47247314453125,-60.87521367521367,25.489621489621488,41.98290598290598
09:04.625,1.521484375,0.16015625,1.42626953125,-3.05938720703125,7.07244873046875,0.70953369140625,-2.399023199023199,-4.947985347985348,28.03858363858364,-1.80859375,-0.67578125,0.2197265625,-2.49481201171875,-1.9683837890625,0.54168701171875,38.53431013431013,-68.07228327228327,78.11819291819292,0.17138671875,2.04736328125,-0.1064453125,-0.96893310546875,0.79345703125,1.70135498046875,-61.47496947496947,25.18974358974359,42.88253968253968
09:05.553,1.81103515625,0.14208984375,1.12109375,0.79345703125,-0.3509521484375,1.312255859375,-2.249084249084249,-7.946764346764346,20.99145299145299,-1.79736328125,-0.72021484375,0.21484375,-3.8604736328125,0.8544921875,0.9613037109375,38.98412698412698,-68.97191697191697,79.31770451770451,0.16357421875,2.04345703125,-0.1162109375,-1.03759765625,1.12152099609375,1.30462646484375,-60.275457875457874,25.18974358974359,43.63223443223443
09:06.478,1.79638671875,0.20556640625,1.06005859375,-1.46484375,-2.1209716796875,-0.17547607421875,-2.249084249084249,-7.946764346764346,20.99145299145299,-1.79736328125,-0.72021484375,0.21484375,-3.8299560546875,0.80108642578125,-0.06866455078125,39.13406593406593,-69.57167277167277,78.86788766788767,0.15380859375,2.05859375,-0.1123046875,-1.16729736328125,0.93841552734375,1.39617919921875,-61.17509157509157,24.29010989010989,44.08205128205128
09:07.355,1.857421875,0.1943359375,0.87158203125,-0.8697509765625,6.93511962890625,-0.9918212890625,-2.399023199023199,-8.846398046398047,18.892307692307693,-1.79638671875,-0.71630859375,0.19384765625,-3.8299560546875,0.80108642578125,-0.06866455078125,40.63345543345543,-68.82197802197803,79.16776556776557,0.15380859375,2.05859375,-0.1123046875,-1.16729736328125,0.93841552734375,1.39617919921875,-61.624908424908426,25.78949938949939,41.683028083028084
09:08.135,1.67626953125,0.12646484375,1.2490234375,-1.251220703125,-0.95367431640625,-2.11334228515625,-3.2986568986568985,-11.095482295482295,17.692796092796094,-1.77880859375,-0.724609375,0.2314453125,-2.54058837890625,0.05340576171875,1.02996826171875,40.63345543345543,-68.82197802197803,79.16776556776557,0.16259765625,2.04541015625,-0.10107421875,-0.86212158203125,0.67901611328125,1.64794921875,-61.624908424908426,25.78949938949939,41.683028083028084
09:08.964,1.75927734375,0.103515625,1.11328125,-1.28936767578125,10.58197021484375,0.9918212890625,-1.9492063492063492,-7.047130647130647,23.99023199023199,-1.77734375,-0.73193359375,0.2431640625,-2.35748291015625,1.0223388671875,0.91552734375,39.13406593406593,-69.12185592185592,78.41807081807082,0.1611328125,2.05126953125,-0.12060546875,-0.86212158203125,1.3275146484375,1.60980224609375,-61.02515262515262,25.18974358974359,44.23199023199023
09:09.939,1.77001953125,0.1923828125,1.119140625,1.9683837890625,-2.777099609375,-0.0762939453125,-2.249084249084249,-9.746031746031745,23.09059829059829,-1.80517578125,-0.708984375,0.22998046875,-3.2958984375,1.99127197265625,-0.2593994140625,40.78339438339438,-67.47252747252747,79.01782661782661,0.15771484375,2.04833984375,-0.1162109375,-1.06048583984375,0.7476806640625,1.15203857421875,-60.87521367521367,25.489621489621488,41.683028083028084
09:10.768,1.8466796875,0.20068359375,0.56982421875,-4.3792724609375,-4.66156005859375,-2.46429443359375,-2.6989010989010986,-10.195848595848595,21.89108669108669,-1.7998046875,-0.74951171875,0.25830078125,-2.96783447265625,-2.1209716796875,1.28936767578125,40.33357753357753,-67.77240537240537,79.46764346764347,0.1591796875,2.0498046875,-0.1015625,-1.10626220703125,0.8087158203125,1.4801025390625,-59.975579975579976,26.689133089133087,43.18241758241758
09:11.597,1.8466796875,0.20068359375,0.56982421875,-4.3792724609375,-4.66156005859375,-2.46429443359375,-5.247863247863248,-13.494505494505495,12.744810744810744,-1.79248046875,-0.728515625,0.20703125,-3.11279296875,-0.00762939453125,1.47247314453125,40.033699633699634,-68.67203907203907,79.76752136752137,0.16015625,2.04736328125,-0.10595703125,-1.0223388671875,0.67901611328125,1.77001953125,-61.924786324786325,26.83907203907204,41.683028083028084
09:12.474,1.58642578125,0.2080078125,1.31494140625,-6.67572021484375,43.27392578125,1.86920166015625,-5.247863247863248,-13.494505494505495,12.744810744810744,-1.79248046875,-0.728515625,0.20703125,-2.3040771484375,-3.53240966796875,1.6632080078125,39.433943833943836,-67.92234432234432,76.91868131868132,0.16015625,2.04736328125,-0.10595703125,-0.3204345703125,0.518798828125,1.40380859375,-60.125518925518925,25.03980463980464,43.78217338217338
09:13.351,1.4794921875,0.2060546875,1.3330078125,-0.55694580078125,1.1444091796875,1.953125,-1.4993894993894994,-5.397802197802197,25.18974358974359,-1.78662109375,-0.7578125,0.32470703125,-2.3040771484375,-3.53240966796875,1.6632080078125,40.033699633699634,-69.42173382173382,80.06739926739927,0.15673828125,2.05029296875,-0.107421875,-0.3204345703125,0.518798828125,1.40380859375,-61.02515262515262,24.88986568986569,41.832967032967034
09:14.180,1.751953125,0.27001953125,1.1435546875,-0.42724609375,2.838134765625,-1.54876708984375,-1.1995115995115995,-7.197069597069596,26.23931623931624,-1.80126953125,-0.74951171875,0.23486328125,-3.82232666015625,0.17547607421875,1.93023681640625,40.033699633699634,-69.42173382173382,80.06739926739927,0.1611328125,2.048828125,-0.10693359375,-1.09100341796875,0.823974609375,1.77001953125,-61.02515262515262,24.88986568986569,41.832967032967034
09:15.058,1.69677734375,0.2841796875,1.16357421875,-0.885009765625,0.0762939453125,-0.5035400390625,-3.4485958485958483,-8.096703296703296,23.24053724053724,-1.78759765625,-0.72265625,0.22509765625,-3.204345703125,-0.5340576171875,1.8463134765625,39.733821733821735,-68.97191697191697,78.71794871794872,0.16015625,2.04736328125,-0.1142578125,-0.8697509765625,0.70953369140625,1.40380859375,-60.72527472527472,25.93943833943834,42.88253968253968
09:15.887,1.6796875,0.3037109375,1.16064453125,-2.34222412109375,1.91497802734375,-0.16021728515625,-2.399023199023199,-7.796825396825397,23.99023199023199,-1.7978515625,-0.73193359375,0.24951171875,-3.0975341796875,0.518798828125,0.90789794921875,38.83418803418803,-70.32136752136752,81.26691086691086,0.16064453125,2.0400390625,-0.11328125,-0.823974609375,0.60272216796875,1.4190673828125,-60.275457875457874,25.18974358974359,42.58266178266178
09:16.715,1.6796875,0.3037109375,1.16064453125,-1.44195556640625,2.26593017578125,0.09918212890625,-2.548962148962149,-8.546520146520146,23.84029304029304,-1.7939453125,-0.73681640625,0.22509765625,-2.838134765625,-0.12969970703125,1.13677978515625,39.583882783882785,-67.32258852258852,79.46764346764347,0.14892578125,2.048828125,-0.10498046875,-1.10626220703125,0.9765625,1.495361328125,-59.07594627594627,25.489621489621488,43.33235653235653
09:17.496,1.70068359375,0.2900390625,1.16357421875,-1.44195556640625,2.26593017578125,0.09918212890625,-2.548962148962149,-8.546520146520146,23.84029304029304,-1.7939453125,-0.73681640625,0.22509765625,-3.4942626953125,0.3204345703125,1.373291015625,40.33357753357753,-68.07228327228327,77.81831501831502,0.16748046875,2.052734375,-0.111328125,-1.129150390625,0.9613037109375,1.617431640625,-59.825641025641026,25.03980463980464,42.73260073260073
09:18.422,1.67236328125,0.29150390625,1.15380859375,-0.5035400390625,-0.67901611328125,-0.3814697265625,-2.399023199023199,-8.396581196581197,23.24053724053724,-1.79052734375,-0.7275390625,0.23193359375,-2.52532958984375,-0.701904296875,0.66375732421875,38.084493284493284,-68.82197802197803,78.86788766788767,0.16748046875,2.052734375,-0.111328125,-1.13677978515625,0.93841552734375,1.70135498046875,-61.17509157509157,27.588766788766787,43.33235653235653
09:19.250,1.72314453125,0.29052734375,1.1337890625,-0.77056884765625,2.26593017578125,-0.16021728515625,-3.8984126984126983,-6.447374847374848,22.04102564102564,-1.802734375,-0.7158203125,0.2138671875,-2.52532958984375,-0.701904296875,0.66375732421875,38.084493284493284,-68.82197802197803,78.86788766788767,0.15869140625,2.03955078125,-0.10205078125,-0.9307861328125,0.93841552734375,1.76239013671875,-60.87521367521367,26.23931623931624,43.33235653235653
09:20.323,1.79931640625,0.28857421875,0.98779296875,-1.89971923828125,1.74713134765625,-0.00762939453125,-2.998778998778999,-8.396581196581197,22.19096459096459,-1.80322265625,-0.73583984375,0.2265625,-2.15911865234375,0.3509521484375,0.58746337890625,40.48351648351648,-68.22222222222221,79.01782661782661,0.1640625,2.04833984375,-0.1162109375,-0.9307861328125,0.93841552734375,1.76239013671875,-60.72527472527472,24.589987789987788,43.63223443223443
09:21.103,1.70166015625,0.25,1.10205078125,-0.8544921875,2.655029296875,0.54168701171875,-2.399023199023199,-10.195848595848595,19.791941391941393,-1.80908203125,-0.7294921875,0.2373046875,-3.84521484375,-0.5340576171875,1.007080078125,40.48351648351648,-68.22222222222221,79.01782661782661,0.16259765625,2.04736328125,-0.10693359375,-1.129150390625,0.83160400390625,1.556396484375,-60.72527472527472,24.589987789987788,43.63223443223443
09:21.932,1.6865234375,0.26318359375,1.24560546875,4.81414794921875,-28.63311767578125,5.6304931640625,-4.798046398046398,-7.047130647130647,21.89108669108669,-1.7734375,-0.73388671875,0.24365234375,-3.0975341796875,-1.46484375,0.54168701171875,40.63345543345543,-67.32258852258852,78.86788766788767,0.1689453125,2.0537109375,-0.099609375,-0.80108642578125,0.69427490234375,1.50299072265625,-60.275457875457874,26.389255189255188,42.13284493284493
09:22.809,1.5517578125,0.1416015625,1.2412109375,-13.9312744140625,3.6773681640625,-12.1917724609375,-0.8996336996336995,-4.498168498168498,26.689133089133087,-1.80517578125,-0.74072265625,0.21826171875,-2.3651123046875,-1.3885498046875,0.75531005859375,40.33357753357753,-68.82197802197803,79.91746031746031,0.1572265625,2.05126953125,-0.12255859375,-0.762939453125,0.762939453125,1.48773193359375,-60.125518925518925,26.83907203907204,42.73260073260073
09:23.687,1.5517578125,0.1416015625,1.2412109375,3.0670166015625,-41.0919189453125,0.45013427734375,-1.4993894993894994,-2.548962148962149,28.93821733821734,-1.78759765625,-0.75341796875,0.16357421875,-3.22723388671875,1.06048583984375,1.9989013671875,39.433943833943836,-67.47252747252747,80.06739926739927,0.16650390625,2.046875,-0.095703125,-0.95367431640625,0.6256103515625,1.59454345703125,-61.02515262515262,27.13894993894994,43.63223443223443
09:24.710,1.7060546875,0.29736328125,1.16845703125,-0.1068115234375,10.21575927734375,0.5950927734375,-3.598534798534798,-9.296214896214895,19.34212454212454,-1.75830078125,-0.7470703125,0.1953125,-2.84576416015625,1.434326171875,0.19073486328125,39.583882783882785,-70.32136752136752,79.16776556776557,0.14990234375,2.0498046875,-0.10595703125,-1.2054443359375,0.86212158203125,1.68609619140625,-58.77606837606837,26.539194139194137,43.78217338217338
09:25.637,1.87109375,0.24365234375,0.77978515625,-0.1068115234375,10.21575927734375,0.5950927734375,-5.697680097680098,-11.395360195360196,16.343345543345542,-1.7861328125,-0.75244140625,0.25732421875,-3.95965576171875,-0.51116943359375,0.57220458984375,40.033699633699634,-67.47252747252747,78.26813186813186,0.158203125,2.044921875,-0.11083984375,-1.36566162109375,1.007080078125,1.73187255859375,-60.87521367521367,26.23931623931624,42.73260073260073
09:26.709,1.56201171875,0.29736328125,1.42333984375,-1.4495849609375,-1.19781494140625,-0.48828125,-3.2986568986568985,-4.048351648351648,28.488400488400487,-1.79052734375,-0.74853515625,0.203125,-2.349853515625,-1.03759765625,1.99127197265625,41.23321123321123,-68.22222222222221,80.81709401709402,0.16748046875,2.04833984375,-0.10595703125,-0.69427490234375,0.98419189453125,1.50299072265625,-60.275457875457874,25.639560439560437,42.13284493284493
09:27.538,1.6044921875,0.29345703125,1.25830078125,-1.4495849609375,-1.19781494140625,-0.48828125,-3.2986568986568985,-4.048351648351648,28.488400488400487,-1.77734375,-0.61962890625,0.5703125,14.65606689453125,-15.89202880859375,9.05609130859375,40.93333333333333,-68.82197802197803,78.11819291819292,0.27587890625,2.02099609375,-0.1708984375,2.35748291015625,1.9683837890625,13.5498046875,-59.975579975579976,25.639560439560437,43.18241758241758
09:28.318,2.14013671875,0.35791015625,0.6015625,-4.53948974609375,-49.12567138671875,-0.78582763671875,-3.8984126984126983,-5.697680097680098,24.14017094017094,-1.77734375,-0.61962890625,0.5703125,14.65606689453125,-15.89202880859375,9.05609130859375,38.234432234432234,-69.42173382173382,87.71428571428571,0.27587890625,2.02099609375,-0.1708984375,2.35748291015625,1.9683837890625,13.5498046875,-62.52454212454212,24.589987789987788,41.832967032967034
09:29.098,1.67919921875,-0.06787109375,1.1533203125,-13.66424560546875,6.7596435546875,12.5885009765625,-4.798046398046398,-13.044688644688645,12.294993894993894,-1.73779296875,-0.57958984375,0.689453125,-7.0037841796875,-2.25830078125,1.51824951171875,38.234432234432234,-69.42173382173382,87.71428571428571,0.32080078125,2.0205078125,-0.19384765625,-3.5247802734375,10.3759765625,-12.74871826171875,-62.52454212454212,24.589987789987788,41.832967032967034
09:29.927,1.689453125,-0.0078125,1.32470703125,6.09588623046875,21.11053466796875,0.4730224609375,1.799267399267399,-7.347008547008547,31.787057387057384,-1.75,-0.57177734375,0.619140625,-2.87628173828125,1.12152099609375,0.58746337890625,34.485958485958484,-68.82197802197803,90.41318681318681,0.32275390625,2.02197265625,-0.19677734375,-0.2288818359375,0.2899169921875,4.3792724609375,-62.82442002442002,21.59120879120879,40.78339438339438
09:30.756,1.82421875,-0.17822265625,1.0458984375,-1.0833740234375,-9.66644287109375,2.105712890625,2.548962148962149,-7.047130647130647,32.536752136752135,-1.736328125,-0.57080078125,0.65576171875,-1.739501953125,-0.84686279296875,1.41143798828125,36.285225885225884,-68.52210012210011,90.71306471306471,0.33447265625,2.02197265625,-0.19091796875,-1.09100341796875,0.54168701171875,1.9378662109375,-62.074725274725274,23.39047619047619,40.78339438339438
09:31.535,1.82421875,-0.17822265625,1.0458984375,-1.0833740234375,-9.66644287109375,2.105712890625,2.548962148962149,-7.047130647130647,32.536752136752135,-1.75341796875,-0.56884765625,0.67626953125,-3.0975341796875,0.6256103515625,1.60980224609375,36.285225885225884,-68.07228327228327,88.3140415140415,0.3359375,2.0263671875,-0.1728515625,-1.1749267578125,0.5340576171875,1.28173828125,-61.624908424908426,23.690354090354088,39.13406593406593
09:32.315,1.81591796875,-0.103515625,0.77880859375,-5.9051513671875,9.45281982421875,-4.15802001953125,3.598534798534798,-7.796825396825397,34.186080586080585,-1.75341796875,-0.56884765625,0.67626953125,-3.0975341796875,0.6256103515625,1.60980224609375,36.285225885225884,-69.87155067155066,90.71306471306471,0.3359375,2.0263671875,-0.1728515625,-1.1749267578125,0.5340576171875,1.28173828125,-62.52454212454212,23.39047619047619,39.733821733821735
09:33.144,1.72705078125,0.1494140625,1.14892578125,-1.28173828125,0.579833984375,-1.0528564453125,-1.4993894993894994,-11.845177045177044,24.44004884004884,-1.7373046875,-0.568359375,0.662109375,-3.60107421875,0.2899169921875,0.92315673828125,36.285225885225884,-69.87155067155066,90.71306471306471,0.328125,2.01953125,-0.18994140625,-0.95367431640625,0.48828125,1.77001953125,-62.52454212454212,23.39047619047619,39.733821733821735
09:33.924,1.6845703125,0.1708984375,1.1748046875,-1.89971923828125,1.8768310546875,-0.37384033203125,-1.3494505494505493,-8.096703296703296,28.788278388278385,-1.732421875,-0.56005859375,0.6904296875,-2.72369384765625,-0.42724609375,1.56402587890625,36.285225885225884,-69.87155067155066,91.16288156288157,0.33447265625,2.02685546875,-0.1845703125,-0.946044921875,0.83160400390625,1.50299072265625,-61.47496947496947,22.79072039072039,40.78339438339438
09:34.753,1.65966796875,0.16455078125,1.21875,-1.73187255859375,1.8768310546875,0.1983642578125,-2.998778998778999,-7.047130647130647,28.338461538461537,-1.73828125,-0.560546875,0.68505859375,-3.2806396484375,0.4119873046875,1.09100341796875,35.68547008547009,-68.67203907203907,88.76385836385836,0.3212890625,2.033203125,-0.1865234375,-0.9002685546875,0.87738037109375,1.3580322265625,-62.67448107448107,23.690354090354088,41.683028083028084
09:35.533,1.65966796875,0.16455078125,1.21875,-1.73187255859375,1.8768310546875,0.1983642578125,-2.998778998778999,-7.047130647130647,28.338461538461537,-1.75439453125,-0.5615234375,0.646484375,-3.34930419921875,0.31280517578125,0.51116943359375,36.135286935286935,-70.17142857142856,92.06251526251526,0.326171875,2.0283203125,-0.19580078125,-1.068115234375,0.35858154296875,1.434326171875,-62.67448107448107,23.24053724053724,40.63345543345543
09:36.313,1.7744140625,-0.0244140625,1.0849609375,-2.471923828125,7.80487060546875,-3.631591796875,-1.799267399267399,-8.246642246642246,29.238095238095237,-1.75439453125,-0.5615234375,0.646484375,-3.34930419921875,0.31280517578125,0.51116943359375,34.186080586080585,-68.52210012210011,90.41318681318681,0.326171875,2.0283203125,-0.19580078125,-1.068115234375,0.35858154296875,1.434326171875,-63.724053724053725,23.99023199023199,40.63345543345543
09:37.142,1.9755859375,0.037109375,0.654296875,5.63812255859375,-60.12725830078125,-3.63922119140625,0.29987789987789987,-8.246642246642246,29.987789987789988,-1.744140625,-0.57421875,0.671875,-2.8839111328125,-1.312255859375,0.885009765625,34.186080586080585,-68.52210012210011,90.41318681318681,0.3212890625,2.0146484375,-0.19140625,-0.46539306640625,1.251220703125,1.4190673828125,-63.724053724053725,23.99023199023199,40.63345543345543
09:37.970,0.92724609375,-0.2109375,1.72265625,14.7247314453125,-18.01300048828125,2.81524658203125,-2.399023199023199,-13.794383394383393,20.54163614163614,-1.7470703125,-0.56982421875,0.677734375,-5.9051513671875,0.22125244140625,0.31280517578125,35.68547008547009,-68.22222222222221,92.06251526251526,0.32373046875,2.02685546875,-0.197265625,-1.02996826171875,0.86212158203125,1.434326171875,-61.774847374847376,23.39047619047619,41.08327228327228
09:38.750,1.875,0.06103515625,0.92626953125,0.99945068359375,2.8839111328125,0.52642822265625,7.197069597069596,7.946764346764346,41.683028083028084,-1.751953125,-0.5869140625,0.63623046875,-2.685546875,-0.7781982421875,0.8697509765625,38.53431013431013,-68.52210012210011,91.46275946275946,0.32177734375,2.02099609375,-0.1904296875,-1.12152099609375,0.7171630859375,1.556396484375,-62.67448107448107,23.24053724053724,41.23321123321123
09:39.530,1.875,0.06103515625,0.92626953125,0.99945068359375,2.8839111328125,0.52642822265625,7.197069597069596,7.946764346764346,41.683028083028084,-1.73388671875,-0.5732421875,0.640625,-2.22015380859375,2.1514892578125,0.79345703125,36.73504273504273,-68.82197802197803,89.66349206349206,0.33203125,2.0244140625,-0.19140625,-1.21307373046875,0.6256103515625,1.48773193359375,-60.72527472527472,23.84029304029304,41.533089133089135
09:40.310,1.91796875,0.0615234375,0.6845703125,-1.5716552734375,0.9002685546875,0.63323974609375,-0.5997557997557997,-9.895970695970696,26.389255189255188,-1.73388671875,-0.5732421875,0.640625,-2.22015380859375,2.1514892578125,0.79345703125,35.985347985347985,-68.82197802197803,90.41318681318681,0.33203125,2.0244140625,-0.19140625,-1.21307373046875,0.6256103515625,1.48773193359375,-62.074725274725274,23.39047619047619,40.48351648351648
09:41.090,1.92041015625,0.0869140625,0.787109375,-1.3275146484375,15.23590087890625,-0.08392333984375,-0.4498168498168498,-14.244200244200243,21.741147741147742,-1.76416015625,-0.59326171875,0.6748046875,-2.98309326171875,-0.14495849609375,0.9002685546875,35.985347985347985,-68.82197802197803,90.41318681318681,0.333984375,2.02587890625,-0.19384765625,-1.4801025390625,0.701904296875,1.36566162109375,-62.074725274725274,23.39047619047619,40.48351648351648
09:41.919,1.9462890625,0.10107421875,0.66552734375,-1.6632080078125,-2.52532958984375,-1.2054443359375,-1.1995115995115995,-11.845177045177044,22.04102564102564,-1.73193359375,-0.576171875,0.66455078125,-3.37982177734375,0.49591064453125,0.87738037109375,38.084493284493284,-68.82197802197803,90.71306471306471,0.330078125,2.0283203125,-0.17626953125,-0.92315673828125,0.5340576171875,1.40380859375,-62.97435897435897,24.29010989010989,40.63345543345543
09:42.699,1.9462890625,0.10107421875,0.66552734375,-0.244140625,-0.69427490234375,0.6256103515625,-2.249084249084249,-13.194627594627594,19.64200244200244,-1.73486328125,-0.57861328125,0.64794921875,-2.6702880859375,-0.08392333984375,0.84686279296875,37.18485958485958,-68.97191697191697,89.51355311355312,0.33056640625,2.02490234375,-0.1787109375,-0.77056884765625,0.7781982421875,1.38092041015625,-63.42417582417582,23.24053724053724,39.883760683760684
09:43.479,1.95166015625,0.126953125,0.68115234375,-0.244140625,-0.69427490234375,0.6256103515625,-2.249084249084249,-13.194627594627594,19.64200244200244,-1.73486328125,-0.57861328125,0.64794921875,-2.4566650390625,-0.091552734375,1.0223388671875,35.53553113553114,-69.12185592185592,89.66349206349206,0.33056640625,2.02490234375,-0.1787109375,-0.98419189453125,0.946044921875,1.50299072265625,-63.873992673992674,23.09059829059829,41.832967032967034
09:44.259,1.91943359375,0.095703125,0.74365234375,-1.39617919921875,6.0272216796875,1.4801025390625,-3.2986568986568985,-12.145054945054945,18.742368742368743,-1.74169921875,-0.57763671875,0.65625,-2.4566650390625,-0.091552734375,1.0223388671875,35.53553113553114,-69.12185592185592,89.66349206349206,0.318359375,2.0205078125,-0.19921875,-0.98419189453125,0.946044921875,1.50299072265625,-63.873992673992674,23.09059829059829,41.832967032967034
09:45.039,1.74951171875,0.0654296875,0.912109375,-0.3814697265625,4.3487548828125,-0.26702880859375,-1.4993894993894994,-13.194627594627594,19.34212454212454,-1.74755859375,-0.55029296875,0.66552734375,-2.8076171875,1.19781494140625,0.48828125,36.88498168498168,-68.22222222222221,90.56312576312575,0.32568359375,2.02734375,-0.19677734375,-1.2359619140625,0.66375732421875,1.47247314453125,-61.774847374847376,23.84029304029304,39.433943833943836
09:45.868,1.89111328125,0.0625,0.1162109375,-7.7056884765625,36.163330078125,2.50244140625,-2.249084249084249,-9.296214896214895,25.18974358974359,-1.73828125,-0.57861328125,0.68408203125,-3.082275390625,0.213623046875,0.762939453125,35.68547008547009,-68.22222222222221,90.26324786324786,0.328125,2.01611328125,-0.1953125,-1.1138916015625,0.8392333984375,1.373291015625,-63.42417582417582,23.24053724053724,41.23321123321123
09:46.648,1.89111328125,0.0625,0.1162109375,-11.68060302734375,-5.859375,0.885009765625,-4.798046398046398,-18.44249084249084,6.597313797313797,-1.7470703125,-0.5576171875,0.69189453125,-2.81524658203125,0.91552734375,0.7476806640625,37.18485958485958,-68.67203907203907,90.26324786324786,0.32275390625,2.017578125,-0.19775390625,-1.09100341796875,0.762939453125,1.5411376953125,-62.97435897435897,23.99023199023199,39.13406593406593
09:47.428,2.0185546875,0.015625,0.416015625,-11.68060302734375,-5.859375,0.885009765625,-4.798046398046398,-18.44249084249084,6.597313797313797,-1.7470703125,-0.5576171875,0.69189453125,-2.8533935546875,-0.732421875,1.19781494140625,35.38559218559219,-67.92234432234432,90.26324786324786,0.32275390625,2.017578125,-0.19775390625,-1.16729736328125,0.89263916015625,1.708984375,-64.32380952380952,23.39047619047619,38.68424908424908
09:48.208,1.99658203125,0.03857421875,0.46533203125,-0.91552734375,0.46539306640625,-0.20599365234375,0.14993894993894993,-16.64322344322344,15.743589743589743,-1.7470703125,-0.5751953125,0.69091796875,-2.8533935546875,-0.732421875,1.19781494140625,35.38559218559219,-67.92234432234432,90.26324786324786,0.3291015625,2.021484375,-0.193359375,-1.16729736328125,0.89263916015625,1.708984375,-64.32380952380952,23.39047619047619,38.68424908424908
09:48.988,2.0458984375,0.1044921875,0.41552734375,2.655029296875,9.3994140625,-4.23431396484375,-3.7484737484737485,-14.094261294261294,17.842735042735043,-1.78515625,-0.60107421875,0.65576171875,-15.106201171875,14.85443115234375,-5.5999755859375,35.23565323565323,-69.57167277167277,90.11330891330891,0.29736328125,2.02392578125,-0.15478515625,-1.04522705078125,1.60980224609375,-2.0294189453125,-63.42417582417582,22.94065934065934,39.883760683760684
09:49.768,1.95556640625,0.1640625,0.5869140625,0.5645751953125,-16.09039306640625,-1.2054443359375,-2.848840048840049,-14.993894993894994,15.593650793650793,-1.83154296875,-0.6572265625,-0.025390625,6.1798095703125,18.24951171875,0.823974609375,37.934554334554335,-67.92234432234432,86.36483516483516,0.24658203125,2.03515625,-0.1708984375,-0.52642822265625,-0.98419189453125,3.6773681640625,-61.924786324786325,24.739926739926737,42.28278388278388
09:50.548,1.95556640625,0.1640625,0.5869140625,0.5645751953125,-16.09039306640625,-1.2054443359375,-8.696459096459096,-14.843956043956043,13.044688644688645,-1.83203125,-0.671875,-0.18701171875,-0.93841552734375,-1.3275146484375,-0.7781982421875,32.686691086691084,-68.82197802197803,67.92234432234432,0.26953125,2.03759765625,-0.16796875,-0.86212158203125,0.60272216796875,1.953125,-62.97435897435897,23.690354090354088,43.33235653235653
09:51.377,2.00048828125,0.140625,0.49853515625,-2.02178955078125,2.34222412109375,-0.02288818359375,-8.696459096459096,-14.843956043956043,13.044688644688645,-1.83203125,-0.671875,-0.18701171875,-0.93841552734375,-1.3275146484375,-0.7781982421875,29.83785103785104,-69.12185592185592,59.07594627594627,0.26953125,2.03759765625,-0.16796875,-0.86212158203125,0.60272216796875,1.953125,-61.774847374847376,22.79072039072039,42.13284493284493
09:52.157,1.98388671875,0.134765625,0.55419921875,-0.9918212890625,3.05938720703125,0.30517578125,-8.846398046398047,-13.194627594627594,5.697680097680098,-1.82470703125,-0.69384765625,-0.1611328125,-2.41851806640625,0.8697509765625,1.617431640625,29.83785103785104,-69.12185592185592,59.07594627594627,0.27099609375,2.0361328125,-0.16845703125,-0.54931640625,0.84686279296875,1.80816650390625,-61.774847374847376,22.79072039072039,42.13284493284493
09:52.937,1.9990234375,0.15380859375,0.5517578125,-1.0223388671875,0.93841552734375,0.06103515625,-6.897191697191697,-14.094261294261294,13.794383394383393,-1.82275390625,-0.6611328125,-0.173828125,-2.6092529296875,0.91552734375,0.41961669921875,30.437606837606836,-69.57167277167277,63.724053724053725,0.2861328125,2.03466796875,-0.16845703125,-0.78582763671875,0.64849853515625,1.9073486328125,-63.724053724053725,22.49084249084249,40.18363858363858
09:53.863,1.97412109375,0.14404296875,0.58642578125,-1.1749267578125,3.448486328125,-0.274658203125,-8.546520146520146,-12.594871794871795,12.894749694749695,-1.84228515625,-0.6826171875,-0.16552734375,-3.9520263671875,-1.2359619140625,2.5787353515625,32.98656898656898,-68.52210012210011,61.624908424908426,0.2802734375,2.03076171875,-0.1669921875,-1.13677978515625,0.89263916015625,1.4190673828125,-62.97435897435897,23.690354090354088,40.63345543345543
09:54.643,1.97412109375,0.14404296875,0.58642578125,-1.1749267578125,3.448486328125,-0.274658203125,-7.347008547008547,-13.494505494505495,16.043467643467643,-1.84375,-0.673828125,-0.12646484375,-0.96893310546875,-3.44085693359375,0.518798828125,32.386813186813185,-67.77240537240537,63.42417582417582,0.16455078125,2.01416015625,-0.2041015625,-1.5869140625,2.7923583984375,5.0201416015625,-64.62368742368741,23.39047619047619,41.08327228327228
09:55.472,1.94287109375,0.1572265625,0.64306640625,-1.38092041015625,5.34820556640625,-0.14495849609375,-7.347008547008547,-13.494505494505495,16.043467643467643,-1.84375,-0.673828125,-0.12646484375,-8.514404296875,-8.41522216796875,-0.6103515625,32.536752136752135,-67.47252747252747,65.97313797313797,0.16455078125,2.01416015625,-0.2041015625,-2.3193359375,0.57220458984375,1.12152099609375,-62.52454212454212,28.188522588522588,39.433943833943836
09:56.300,1.4169921875,0.18994140625,1.4052734375,-28.31268310546875,-18.22662353515625,-13.5650634765625,-7.796825396825397,-11.845177045177044,10.195848595848595,-1.80322265625,-0.66845703125,0.16455078125,-8.514404296875,-8.41522216796875,-0.6103515625,36.88498168498168,-68.67203907203907,74.06984126984126,0.15771484375,2.046875,-0.1572265625,-2.3193359375,0.57220458984375,1.12152099609375,-62.82442002442002,26.689133089133087,40.78339438339438
09:57.203,1.712890625,-0.06494140625,1.2373046875,10.3759765625,-12.29095458984375,11.688232421875,-2.548962148962149,-3.598534798534798,29.987789987789988,-1.80615234375,-0.6484375,0.24658203125,-8.87298583984375,2.26593017578125,-1.48773193359375,36.88498168498168,-68.67203907203907,74.06984126984126,0.1533203125,2.03857421875,-0.1435546875,-1.40380859375,0.9918212890625,1.04522705078125,-62.82442002442002,26.689133089133087,40.78339438339438
09:58.007,1.84130859375,0.01806640625,0.84912109375,-0.030517578125,-7.6446533203125,-1.0223388671875,-1.4993894993894994,-6.897191697191697,33.73626373626374,-1.794921875,-0.75146484375,0.12353515625,-2.17437744140625,-0.5035400390625,0.49591064453125,37.784615384615385,-68.07228327228327,78.41807081807082,0.1435546875,2.05029296875,-0.14501953125,-1.16729736328125,0.91552734375,1.41143798828125,-62.074725274725274,26.689133089133087,39.433943833943836
09:58.787,1.97705078125,0.04443359375,0.6708984375,-1.28936767578125,-1.9378662109375,0.28228759765625,-2.848840048840049,-11.395360195360196,23.84029304029304,-1.79296875,-0.7578125,0.14453125,-3.4027099609375,0.0152587890625,0.45013427734375,38.83418803418803,-67.77240537240537,77.06862026862026,0.12646484375,2.0439453125,-0.16357421875,-0.93841552734375,0.64849853515625,1.67083740234375,-60.72527472527472,27.738705738705736,40.78339438339438
09:59.615,1.97705078125,0.04443359375,0.6708984375,-1.28936767578125,-1.9378662109375,0.28228759765625,-5.697680097680098,-13.644444444444444,20.99145299145299,-1.7958984375,-0.76025390625,0.11328125,-3.05938720703125,-0.61798095703125,0.90789794921875,38.98412698412698,-68.97191697191697,76.91868131868132,0.12353515625,2.04736328125,-0.1328125,-0.640869140625,0.81634521484375,1.67083740234375,-61.774847374847376,29.238095238095237,38.98412698412698
10:00.444,1.97412109375,-0.00634765625,0.58740234375,-2.5787353515625,4.52423095703125,-0.1373291015625,-5.697680097680098,-13.644444444444444,20.99145299145299,-1.7958984375,-0.76025390625,0.11328125,-2.50244140625,2.57110595703125,0.91552734375,40.48351648351648,-68.22222222222221,77.96825396825396,0.12353515625,2.04736328125,-0.1328125,-0.9918212890625,0.8544921875,1.617431640625,-62.37460317460317,27.588766788766787,39.13406593406593
10:01.273,2.0576171875,0.07177734375,0.31640625,4.08935546875,-30.03692626953125,0.4425048828125,-2.399023199023199,-14.544078144078144,20.54163614163614,-1.7578125,-0.76806640625,0.119140625,-2.50244140625,2.57110595703125,0.91552734375,39.883760683760684,-69.12185592185592,78.86788766788767,0.12158203125,2.048828125,-0.15478515625,-0.9918212890625,0.8544921875,1.617431640625,-62.97435897435897,28.03858363858364,39.883760683760684
10:02.102,1.916015625,0.01220703125,0.7080078125,-1.7852783203125,12.41302490234375,-1.96075439453125,-5.547741147741148,-15.593650793650793,12.744810744810744,-1.78857421875,-0.763671875,0.1357421875,-3.2196044921875,0.14495849609375,1.28936767578125,39.883760683760684,-69.12185592185592,78.86788766788767,0.126953125,2.04541015625,-0.15234375,-0.9613037109375,0.8544921875,1.47247314453125,-62.97435897435897,28.03858363858364,39.883760683760684
10:02.882,1.93505859375,0.01904296875,0.73486328125,-1.9378662109375,1.47247314453125,-0.0762939453125,-1.799267399267399,-13.944322344322345,20.99145299145299,-1.79443359375,-0.77001953125,0.13330078125,-2.6092529296875,0.79345703125,1.31988525390625,38.83418803418803,-68.07228327228327,77.36849816849816,0.12548828125,2.04736328125,-0.15576171875,-1.12152099609375,1.06048583984375,1.56402587890625,-61.924786324786325,26.83907203907204,40.18363858363858
10:03.711,1.93505859375,0.01904296875,0.73486328125,1.068115234375,-9.69696044921875,0.6256103515625,-2.6989010989010986,-12.744810744810744,21.59120879120879,-1.794921875,-0.7666015625,0.15185546875,-2.60162353515625,0.80108642578125,1.30462646484375,39.13406593406593,-67.77240537240537,77.81831501831502,0.12255859375,2.0458984375,-0.1552734375,-0.75531005859375,0.83160400390625,1.6326904296875,-61.924786324786325,26.539194139194137,40.63345543345543
10:04.539,2.02685546875,0.0263671875,0.66455078125,1.068115234375,-9.69696044921875,0.6256103515625,-2.6989010989010986,-12.744810744810744,21.59120879120879,-1.7880859375,-0.77490234375,0.16015625,-2.90679931640625,-1.0528564453125,0.83160400390625,38.68424908424908,-66.87277167277168,77.51843711843712,0.11669921875,2.0576171875,-0.1455078125,-0.92315673828125,0.885009765625,1.52587890625,-62.37460317460317,27.288888888888888,39.883760683760684
10:05.368,2.02001953125,0.0263671875,0.3369140625,-1.28936767578125,-2.7008056640625,-0.5950927734375,-3.8984126984126983,-13.944322344322345,19.64200244200244,-1.7880859375,-0.77490234375,0.16015625,-2.90679931640625,-1.0528564453125,0.83160400390625,38.68424908424908,-68.67203907203907,78.26813186813186,0.11669921875,2.0576171875,-0.1455078125,-0.92315673828125,0.885009765625,1.52587890625,-62.37460317460317,29.088156288156288,39.583882783882785
10:06.148,2.03173828125,0.01513671875,0.353515625,-0.64849853515625,6.34765625,-0.2288818359375,-3.8984126984126983,-16.043467643467643,14.544078144078144,-1.8056640625,-0.7822265625,0.13427734375,-0.80108642578125,0.03814697265625,1.06048583984375,38.68424908424908,-68.67203907203907,78.26813186813186,0.10693359375,2.052734375,-0.1513671875,-1.28173828125,0.823974609375,1.6326904296875,-62.37460317460317,29.088156288156288,39.583882783882785
10:06.928,2.02685546875,0.01025390625,0.13525390625,0.030517578125,-4.32586669921875,-0.00762939453125,-3.7484737484737485,-16.64322344322344,14.394139194139193,-1.78466796875,-0.75244140625,0.11865234375,-2.78472900390625,-0.57220458984375,1.1444091796875,40.33357753357753,-68.52210012210011,80.21733821733821,0.12109375,2.0478515625,-0.14013671875,-0.87738037109375,0.885009765625,1.5716552734375,-62.52454212454212,26.689133089133087,40.78339438339438
10:07.708,2.02685546875,0.01025390625,0.13525390625,-0.64849853515625,-4.3182373046875,-1.39617919921875,-4.798046398046398,-19.49206349206349,8.546520146520146,-1.80029296875,-0.763671875,0.1513671875,-3.0059814453125,-0.29754638671875,1.25885009765625,40.33357753357753,-67.32258852258852,77.81831501831502,0.11328125,2.044921875,-0.1435546875,-1.03759765625,0.43487548828125,1.495361328125,-61.47496947496947,28.188522588522588,40.48351648351648
10:08.488,2.05859375,0.03076171875,0.11962890625,-0.64849853515625,-4.3182373046875,-1.39617919921875,-4.798046398046398,-19.49206349206349,8.546520146520146,-1.80029296875,-0.763671875,0.1513671875,-2.777099609375,-0.8697509765625,1.21307373046875,41.23321123321123,-68.67203907203907,79.76752136752137,0.11328125,2.044921875,-0.1435546875,-0.8544921875,0.99945068359375,1.7547607421875,-62.82442002442002,28.188522588522588,38.98412698412698
10:09.268,2.07568359375,0.03271484375,0.03271484375,-0.2899169921875,-0.9307861328125,0.091552734375,-5.697680097680098,-19.34212454212454,9.146275946275946,-1.79345703125,-0.75732421875,0.15087890625,-2.777099609375,-0.8697509765625,1.21307373046875,41.23321123321123,-68.67203907203907,79.76752136752137,0.11474609375,2.04150390625,-0.14501953125,-0.8544921875,0.99945068359375,1.7547607421875,-62.82442002442002,28.188522588522588,38.98412698412698
10:10.048,2.06884765625,0.01611328125,-0.109375,-4.669189453125,8.33892822265625,-1.41143798828125,-6.597313797313797,-19.19218559218559,7.646886446886446,-1.79150390625,-0.7578125,0.14990234375,-3.7384033203125,-1.50299072265625,0.8697509765625,39.13406593406593,-68.07228327228327,78.86788766788767,0.1142578125,2.04931640625,-0.14794921875,-1.10626220703125,0.762939453125,1.739501953125,-62.37460317460317,26.83907203907204,40.93333333333333
10:10.974,2.083984375,0.0546875,0.265625,-4.78363037109375,11.16943359375,-2.105712890625,-4.947985347985348,-18.892307692307693,3.7484737484737485,-1.7978515625,-0.765625,0.22314453125,-1.9989013671875,-0.12969970703125,2.37274169921875,39.433943833943836,-67.47252747252747,80.06739926739927,0.115234375,2.0458984375,-0.13134765625,-0.1983642578125,-1.068115234375,0.87738037109375,-61.47496947496947,28.188522588522588,40.48351648351648
10:11.803,1.8681640625,-0.0341796875,0.89599609375,-39.947509765625,84.9151611328125,-19.134521484375,-3.7484737484737485,-17.992673992673993,11.695238095238095,-1.8115234375,-0.7255859375,0.0078125,-2.3040771484375,11.00921630859375,1.59454345703125,38.83418803418803,-67.77240537240537,79.16776556776557,0.14306640625,2.04736328125,-0.16552734375,-0.5035400390625,0.60272216796875,2.92205810546875,-63.57411477411477,29.537973137973136,42.13284493284493
10:12.632,1.8681640625,-0.0341796875,0.89599609375,-39.947509765625,84.9151611328125,-19.134521484375,2.249084249084249,-7.347008547008547,38.98412698412698,-1.8212890625,-0.6533203125,-0.0224609375,19.3328857421875,8.636474609375,-1.2969970703125,36.435164835164834,-68.67203907203907,70.17142857142856,0.1591796875,2.0361328125,-0.1806640625,-0.58746337890625,1.65557861328125,1.68609619140625,-62.97435897435897,29.088156288156288,39.883760683760684
10:13.412,1.48876953125,0.17578125,1.3955078125,-3.8604736328125,10.0860595703125,-1.45721435546875,2.249084249084249,-7.347008547008547,38.98412698412698,-1.8212890625,-0.6533203125,-0.0224609375,-2.86865234375,0.335693359375,1.22833251953125,33.58632478632479,-67.17264957264958,66.72283272283272,0.1591796875,2.0361328125,-0.1806640625,-0.99945068359375,0.69427490234375,2.00653076171875,-62.52454212454212,25.93943833943834,39.733821733821735
10:14.192,1.63232421875,0.06591796875,1.57177734375,-5.096435546875,2.1209716796875,3.27301025390625,-1.3494505494505493,2.249084249084249,38.68424908424908,-1.82958984375,-0.6767578125,-0.0771484375,-2.86865234375,0.335693359375,1.22833251953125,33.58632478632479,-67.17264957264958,66.72283272283272,0.17724609375,2.04052734375,-0.1669921875,-0.99945068359375,0.69427490234375,2.00653076171875,-62.52454212454212,25.93943833943834,39.733821733821735
10:15.020,1.43798828125,0.076171875,1.47900390625,-2.73895263671875,0.0,0.40435791015625,-0.7496947496947497,1.0495726495726496,39.13406593406593,-1.8525390625,-0.61767578125,-0.0947265625,-2.7923583984375,0.9765625,2.3345947265625,34.186080586080585,-67.32258852258852,66.12307692307692,0.1748046875,2.048828125,-0.15966796875,-0.885009765625,1.220703125,1.22833251953125,-61.924786324786325,27.288888888888888,40.18363858363858
10:15.800,1.4462890625,0.06494140625,1.45751953125,-0.3204345703125,-0.2288818359375,1.07574462890625,-0.7496947496947497,1.3494505494505493,37.784615384615385,-1.86962890625,-0.66064453125,-0.08935546875,-4.73785400390625,-1.3275146484375,0.03814697265625,33.28644688644688,-66.12307692307692,64.62368742368741,0.17529296875,2.0419921875,-0.16748046875,-0.7476806640625,1.50299072265625,1.57928466796875,-64.62368742368741,27.438827838827837,40.48351648351648
10:16.581,1.4462890625,0.06494140625,1.45751953125,-0.3204345703125,-0.2288818359375,1.07574462890625,-1.9492063492063492,2.548962148962149,38.68424908424908,-1.7607421875,-0.52197265625,0.38916015625,2.0751953125,-24.59716796875,11.1236572265625,33.28644688644688,-67.92234432234432,66.72283272283272,0.203125,2.05712890625,-0.1494140625,0.09918212890625,0.26702880859375,4.1656494140625,-61.17509157509157,27.288888888888888,39.583882783882785
10:17.360,1.5751953125,-0.0146484375,1.056640625,-7.2479248046875,41.77093505859375,-4.1046142578125,-1.9492063492063492,2.548962148962149,38.68424908424908,-1.7607421875,-0.52197265625,0.38916015625,2.0751953125,-24.59716796875,11.1236572265625,34.78583638583638,-67.32258852258852,80.96703296703296,0.203125,2.05712890625,-0.1494140625,0.09918212890625,0.26702880859375,4.1656494140625,-62.52454212454212,26.389255189255188,40.033699633699634
10:18.140,1.20947265625,0.11083984375,1.857421875,8.1329345703125,-27.89306640625,8.62884521484375,-0.5997557997557997,-7.347008547008547,35.53553113553114,-1.748046875,-0.5703125,0.6064453125,-11.749267578125,4.8065185546875,-4.150390625,34.78583638583638,-67.32258852258852,80.96703296703296,0.22412109375,2.03857421875,-0.17333984375,-1.251220703125,-0.213623046875,1.36566162109375,-62.52454212454212,26.389255189255188,40.033699633699634
10:18.920,2.033203125,0.00732421875,0.296875,2.044677734375,10.31494140625,-0.11444091796875,4.048351648351648,5.847619047619047,40.93333333333333,-1.75390625,-0.64599609375,0.55859375,-4.03594970703125,1.51824951171875,1.251220703125,35.68547008547009,-68.97191697191697,89.51355311355312,0.205078125,2.04296875,-0.1650390625,-1.068115234375,0.946044921875,1.5869140625,-62.52454212454212,24.589987789987788,38.38437118437118
10:19.749,2.04443359375,0.076171875,0.29296875,3.18145751953125,-8.00323486328125,-3.31878662109375,-3.2986568986568985,-16.49328449328449,18.29255189255189,-1.7685546875,-0.63623046875,0.560546875,-2.05230712890625,-2.15911865234375,1.16729736328125,38.084493284493284,-68.82197802197803,90.41318681318681,0.201171875,2.0419921875,-0.16455078125,-0.87738037109375,0.5645751953125,1.44195556640625,-61.624908424908426,27.288888888888888,40.93333333333333
10:20.529,2.04443359375,0.076171875,0.29296875,3.18145751953125,-8.00323486328125,-3.31878662109375,-3.2986568986568985,-16.49328449328449,18.29255189255189,-1.755859375,-0.630859375,0.5595703125,-3.01361083984375,-0.335693359375,1.22833251953125,39.733821733821735,-66.87277167277168,88.16410256410256,0.20068359375,2.04150390625,-0.17138671875,-1.18255615234375,0.46539306640625,1.64031982421875,-62.67448107448107,26.23931623931624,38.83418803418803
10:21.310,2.05712890625,0.0361328125,0.55126953125,-9.2620849609375,25.5584716796875,2.89154052734375,-4.648107448107448,-15.743589743589743,17.242979242979242,-1.755859375,-0.630859375,0.5595703125,-3.01361083984375,-0.335693359375,1.22833251953125,39.733821733821735,-66.42295482295482,86.66471306471306,0.20068359375,2.04150390625,-0.17138671875,-1.18255615234375,0.46539306640625,1.64031982421875,-62.074725274725274,25.93943833943834,40.033699633699634
10:22.089,1.95654296875,-0.01123046875,0.34130859375,20.53070068359375,-77.98004150390625,-1.15966796875,-3.4485958485958483,-15.893528693528692,21.89108669108669,-1.7646484375,-0.6455078125,0.57177734375,-3.3111572265625,1.434326171875,0.96893310546875,39.733821733821735,-66.42295482295482,86.66471306471306,0.20361328125,2.04345703125,-0.17919921875,-1.36566162109375,0.7781982421875,1.73187255859375,-62.074725274725274,25.93943833943834,40.033699633699634
10:22.870,2.076171875,0.08349609375,-0.0517578125,1.190185546875,-0.92315673828125,0.57220458984375,-3.4485958485958483,-17.992673992673993,18.892307692307693,-1.76806640625,-0.6337890625,0.56494140625,-2.6092529296875,-0.9918212890625,1.82342529296875,37.784615384615385,-68.52210012210011,86.96459096459097,0.19873046875,2.03564453125,-0.1669921875,-0.8087158203125,0.67901611328125,1.54876708984375,-62.67448107448107,25.489621489621488,39.583882783882785
10:23.649,2.076171875,0.08349609375,-0.0517578125,-35.4461669921875,52.06298828125,21.6522216796875,-4.798046398046398,-20.24175824175824,5.547741147741148,-1.7705078125,-0.6123046875,0.56103515625,-1.2969970703125,-1.19781494140625,-0.20599365234375,38.83418803418803,-69.87155067155066,89.36361416361416,0.20654296875,2.04345703125,-0.17919921875,-1.16729736328125,0.90789794921875,1.35040283203125,-62.37460317460317,25.489621489621488,39.883760683760684
10:24.429,2.15380859375,0.1328125,0.3271484375,-35.4461669921875,52.06298828125,21.6522216796875,-4.798046398046398,-20.24175824175824,5.547741147741148,-1.7705078125,-0.6123046875,0.56103515625,-1.52587890625,-0.28228759765625,-0.34332275390625,38.53431013431013,-68.07228327228327,89.06373626373626,0.20654296875,2.04345703125,-0.17919921875,-1.02996826171875,1.0223388671875,1.47247314453125,-61.774847374847376,25.18974358974359,40.78339438339438
10:25.209,1.06103515625,-0.2841796875,1.71435546875,15.19012451171875,-90.9881591796875,-3.814697265625,-5.397802197802197,-16.49328449328449,11.845177045177044,-1.78564453125,-0.60009765625,0.556640625,-1.52587890625,-0.28228759765625,-0.34332275390625,38.53431013431013,-68.07228327228327,89.06373626373626,0.19677734375,2.03662109375,-0.15869140625,-1.02996826171875,1.0223388671875,1.47247314453125,-61.774847374847376,25.18974358974359,40.78339438339438
10:26.038,2.125,0.00341796875,0.27978515625,2.9296875,-15.8233642578125,5.035400390625,9.446153846153846,2.848840048840049,45.28156288156288,-1.78369140625,-0.60205078125,0.5419921875,-4.35638427734375,1.6021728515625,2.26593017578125,37.784615384615385,-69.57167277167277,89.66349206349206,0.1982421875,2.05078125,-0.17041015625,-0.7171630859375,0.92315673828125,1.6021728515625,-62.37460317460317,26.83907203907204,39.883760683760684
10:26.818,2.0244140625,-0.080078125,0.24267578125,2.20489501953125,9.48333740234375,-0.579833984375,-2.399023199023199,-14.544078144078144,16.043467643467643,-1.77197265625,-0.58154296875,0.51611328125,-3.23486328125,-1.68609619140625,1.3427734375,36.435164835164834,-67.47252747252747,88.76385836385836,0.197265625,2.03857421875,-0.16845703125,-1.068115234375,1.0986328125,1.88446044921875,-61.624908424908426,26.539194139194137,40.63345543345543
10:27.598,2.0244140625,-0.080078125,0.24267578125,2.20489501953125,9.48333740234375,-0.579833984375,-2.399023199023199,-18.742368742368743,19.49206349206349,-1.783203125,-0.5771484375,0.54150390625,-2.410888671875,-0.244140625,1.251220703125,37.33479853479853,-67.77240537240537,86.96459096459097,0.20703125,2.03955078125,-0.1669921875,-0.9307861328125,0.58746337890625,1.54876708984375,-63.42417582417582,25.78949938949939,39.583882783882785
10:28.378,1.95068359375,-0.08447265625,0.482421875,0.48065185546875,8.20159912109375,-3.05938720703125,-2.399023199023199,-18.742368742368743,19.49206349206349,-1.783203125,-0.5771484375,0.54150390625,-2.410888671875,-0.244140625,1.251220703125,37.03492063492063,-67.02271062271062,89.36361416361416,0.20703125,2.03955078125,-0.1669921875,-0.8697509765625,0.762939453125,1.495361328125,-63.57411477411477,25.639560439560437,41.08327228327228
10:29.207,1.9853515625,-0.064453125,0.56298828125,-3.57818603515625,1.41143798828125,-2.11334228515625,-2.249084249084249,-13.194627594627594,18.29255189255189,-1.7734375,-0.587890625,0.56396484375,-3.143310546875,-0.92315673828125,0.946044921875,37.03492063492063,-67.02271062271062,89.36361416361416,0.2001953125,2.04296875,-0.1669921875,-0.8697509765625,0.762939453125,1.495361328125,-63.57411477411477,25.639560439560437,41.08327228327228
10:30.036,1.96826171875,-0.03662109375,0.6181640625,-0.79345703125,-0.23651123046875,-0.06866455078125,-0.7496947496947497,-14.993894993894994,24.44004884004884,-1.771484375,-0.572265625,0.57861328125,-1.678466796875,-0.51116943359375,1.02996826171875,39.433943833943836,-68.97191697191697,88.46398046398046,0.2021484375,2.03759765625,-0.17333984375,-1.0223388671875,0.77056884765625,1.60980224609375,-61.17509157509157,25.78949938949939,38.83418803418803
10:30.864,2.03466796875,-0.0146484375,0.4736328125,0.823974609375,-6.78253173828125,-2.03704833984375,2.0991452991452992,-11.395360195360196,17.242979242979242,-1.79296875,-0.5908203125,0.58837890625,-3.0975341796875,0.35858154296875,0.63323974609375,38.084493284493284,-69.57167277167277,88.6139194139194,0.19873046875,2.0390625,-0.1611328125,-0.99945068359375,0.74005126953125,1.39617919921875,-62.82442002442002,25.18974358974359,40.48351648351648
10:31.644,2.03466796875,-0.0146484375,0.4736328125,-0.48065185546875,-1.5869140625,0.20599365234375,-2.548962148962149,-15.443711843711844,21.44126984126984,-1.75830078125,-0.60009765625,0.58740234375,-2.50244140625,-0.22125244140625,0.31280517578125,39.733821733821735,-69.42173382173382,89.21367521367522,0.19921875,2.0400390625,-0.17822265625,-0.70953369140625,0.6256103515625,1.51824951171875,-61.47496947496947,25.93943833943834,38.98412698412698
10:32.473,2.01904296875,-0.0166015625,0.41845703125,-0.48065185546875,-1.5869140625,0.20599365234375,-2.548962148962149,-15.443711843711844,21.44126984126984,-1.75830078125,-0.60009765625,0.58740234375,-2.838134765625,-1.0223388671875,0.8544921875,38.68424908424908,-69.42173382173382,87.41440781440781,0.19921875,2.0400390625,-0.17822265625,-0.9613037109375,0.74005126953125,1.312255859375,-62.67448107448107,25.03980463980464,41.683028083028084
10:33.302,2.00927734375,-0.01171875,0.46826171875,-2.02178955078125,4.7760009765625,0.1068115234375,-2.6989010989010986,-13.044688644688645,14.694017094017093,-1.75927734375,-0.60400390625,0.5771484375,-2.288818359375,0.16021728515625,1.41143798828125,38.53431013431013,-68.52210012210011,90.71306471306471,0.19677734375,2.0439453125,-0.17041015625,-0.885009765625,0.518798828125,1.495361328125,-63.27423687423687,24.88986568986569,41.08327228327228
10:34.325,1.99853515625,-0.00927734375,0.4375,1.85394287109375,-6.7901611328125,-1.3275146484375,-0.8996336996336995,-15.143833943833943,20.24175824175824,-1.7763671875,-0.60400390625,0.57666015625,-2.288818359375,0.16021728515625,1.41143798828125,37.33479853479853,-68.07228327228327,88.3140415140415,0.19677734375,2.0439453125,-0.17041015625,-0.885009765625,0.518798828125,1.495361328125,-62.97435897435897,24.739926739926737,40.18363858363858
10:35.105,2.03564453125,0.03076171875,0.35498046875,-2.51007080078125,3.60107421875,0.7171630859375,-0.5997557997557997,-11.995115995115995,14.094261294261294,-1.76806640625,-0.58837890625,0.58837890625,-2.0904541015625,-1.19781494140625,0.90789794921875,37.33479853479853,-68.07228327228327,88.3140415140415,0.19873046875,2.04248046875,-0.16796875,-1.0223388671875,0.9002685546875,1.60980224609375,-62.97435897435897,24.739926739926737,40.18363858363858
10:35.885,2.041015625,0.0029296875,0.47802734375,-3.0517578125,5.2337646484375,-0.25177001953125,-2.848840048840049,-16.793162393162394,17.992673992673993,-1.74462890625,-0.60205078125,0.58154296875,-2.5177001953125,-0.23651123046875,1.312255859375,37.33479853479853,-69.87155067155066,89.66349206349206,0.2060546875,2.03173828125,-0.16259765625,-1.1138916015625,0.83160400390625,1.42669677734375,-62.67448107448107,24.29010989010989,39.13406593406593
10:36.666,2.041015625,0.0029296875,0.47802734375,1.6937255859375,10.50567626953125,-2.2430419921875,-1.799267399267399,-16.043467643467643,20.09181929181929,-1.76318359375,-0.5908203125,0.595703125,-2.98309326171875,-0.18310546875,1.0986328125,38.234432234432234,-68.97191697191697,88.46398046398046,0.20068359375,2.03955078125,-0.16357421875,-0.8392333984375,0.78582763671875,1.6632080078125,-61.17509157509157,25.489621489621488,39.883760683760684
10:37.446,1.943359375,0.0244140625,0.59228515625,1.6937255859375,10.50567626953125,-2.2430419921875,-1.799267399267399,-16.043467643467643,20.09181929181929,-1.76318359375,-0.5908203125,0.595703125,-2.86102294921875,-0.35858154296875,1.0986328125,37.934554334554335,-69.42173382173382,89.51355311355312,0.2021484375,2.03857421875,-0.17626953125,-1.03759765625,1.02996826171875,1.67083740234375,-63.57411477411477,26.689133089133087,40.033699633699634
10:38.372,1.947265625,0.0546875,0.724609375,-0.946044921875,2.3193359375,0.1220703125,-3.2986568986568985,-13.944322344322345,22.79072039072039,-1.7587890625,-0.60205078125,0.61474609375,-2.86102294921875,-0.35858154296875,1.0986328125,37.33479853479853,-68.82197802197803,90.11330891330891,0.2021484375,2.03857421875,-0.17626953125,-1.03759765625,1.02996826171875,1.67083740234375,-61.47496947496947,27.438827838827837,39.733821733821735
10:39.201,1.73779296875,-0.00927734375,0.9423828125,-5.30242919921875,36.12518310546875,1.4801025390625,-1.799267399267399,-12.894749694749695,24.44004884004884,-1.76416015625,-0.591796875,0.60498046875,-3.143310546875,-0.00762939453125,1.02996826171875,37.33479853479853,-68.82197802197803,90.11330891330891,0.19921875,2.0390625,-0.17724609375,-0.78582763671875,0.60272216796875,1.6632080078125,-61.47496947496947,27.438827838827837,39.733821733821735
10:40.030,1.88720703125,0.0078125,0.8603515625,-1.41143798828125,0.42724609375,-0.28228759765625,-0.4498168498168498,-12.894749694749695,29.537973137973136,-1.75634765625,-0.60205078125,0.61962890625,-2.960205078125,0.16021728515625,0.70953369140625,37.934554334554335,-68.22222222222221,88.46398046398046,0.2021484375,2.03369140625,-0.15478515625,-0.80108642578125,1.0223388671875,1.5716552734375,-60.72527472527472,27.438827838827837,40.48351648351648
10:40.809,1.75927734375,-0.01318359375,1.11572265625,-18.63861083984375,-54.168701171875,4.913330078125,-0.29987789987789987,-12.294993894993894,29.687912087912085,-1.78076171875,-0.60107421875,0.6005859375,-3.18145751953125,1.56402587890625,0.17547607421875,39.13406593406593,-68.52210012210011,89.06373626373626,0.1982421875,2.0390625,-0.1708984375,-0.7781982421875,0.8544921875,1.434326171875,-60.72527472527472,26.389255189255188,38.98412698412698
10:41.589,1.75927734375,-0.01318359375,1.11572265625,-18.63861083984375,-54.168701171875,4.913330078125,-1.1995115995115995,-9.746031746031745,32.98656898656898,-1.74267578125,-0.6171875,0.59033203125,-3.48663330078125,-0.823974609375,1.0833740234375,37.33479853479853,-67.02271062271062,89.66349206349206,0.19482421875,2.0458984375,-0.1748046875,-0.7476806640625,1.07574462890625,1.6021728515625,-61.47496947496947,26.389255189255188,41.533089133089135
10:42.370,1.884765625,-0.353515625,0.7333984375,-5.035400390625,2.61688232421875,-5.279541015625,-1.1995115995115995,-9.746031746031745,32.98656898656898,-1.74267578125,-0.6171875,0.59033203125,-3.48663330078125,-0.823974609375,1.0833740234375,40.48351648351648,-67.92234432234432,90.56312576312575,0.19482421875,2.0458984375,-0.1748046875,-0.7476806640625,1.07574462890625,1.6021728515625,-63.27423687423687,25.18974358974359,41.08327228327228
10:43.150,0.8466796875,-0.06640625,1.802734375,-6.93511962890625,20.89691162109375,-1.12152099609375,6.297435897435897,-11.395360195360196,38.38437118437118,-1.75244140625,-0.61767578125,0.66552734375,-4.2572021484375,-2.43377685546875,1.07574462890625,40.48351648351648,-67.92234432234432,90.56312576312575,0.2060546875,2.0439453125,-0.17236328125,-0.87738037109375,1.495361328125,1.53350830078125,-63.27423687423687,25.18974358974359,41.08327228327228
10:43.929,0.95166015625,-0.20751953125,1.8359375,-3.84521484375,3.51715087890625,0.1983642578125,5.247863247863248,10.195848595848595,41.533089133089135,-1.74462890625,-0.595703125,0.60888671875,-2.41851806640625,0.396728515625,1.59454345703125,37.18485958485958,-67.92234432234432,89.96336996336996,0.2001953125,2.04296875,-0.16162109375,-0.96893310546875,0.823974609375,1.51824951171875,-63.42417582417582,25.03980463980464,39.13406593406593
10:44.709,0.95166015625,-0.20751953125,1.8359375,8.544921875,-36.590576171875,1.190185546875,-8.246642246642246,9.596092796092796,39.733821733821735,-1.744140625,-0.59130859375,0.63134765625,-1.312255859375,-1.7852783203125,2.227783203125,36.435164835164834,-67.47252747252747,87.41440781440781,0.20068359375,2.03564453125,-0.162109375,-0.9002685546875,1.19781494140625,1.67083740234375,-62.82442002442002,26.389255189255188,39.433943833943836
10:45.538,1.01123046875,-0.052734375,1.83740234375,8.544921875,-36.590576171875,1.190185546875,-12.594871794871795,4.048351648351648,32.836630036630034,-1.7197265625,-0.62841796875,0.67578125,-4.6234130859375,-0.518798828125,0.5645751953125,39.433943833943836,-68.97191697191697,88.76385836385836,0.20068359375,2.044921875,-0.1708984375,-0.885009765625,0.7476806640625,1.68609619140625,-62.82442002442002,25.639560439560437,37.934554334554335
10:46.415,1.7392578125,0.10546875,1.2685546875,-3.7841796875,25.970458984375,-4.78363037109375,-12.594871794871795,4.048351648351648,32.836630036630034,-1.7197265625,-0.62841796875,0.67578125,-3.30352783203125,5.340576171875,1.41143798828125,38.084493284493284,-68.52210012210011,91.16288156288157,0.20068359375,2.044921875,-0.1708984375,-1.1749267578125,1.02996826171875,1.5411376953125,-62.82442002442002,27.13894993894994,39.733821733821735
10:47.195,1.9794921875,0.103515625,0.4912109375,6.88934326171875,-51.7578125,4.8828125,-18.892307692307693,-7.796825396825397,23.99023199023199,-1.7392578125,-0.6123046875,0.615234375,-3.30352783203125,5.340576171875,1.41143798828125,38.084493284493284,-68.52210012210011,91.16288156288157,0.2080078125,2.04443359375,-0.173828125,-1.1749267578125,1.02996826171875,1.5411376953125,-62.82442002442002,27.13894993894994,39.733821733821735
10:47.975,1.759765625,-0.138671875,1.05322265625,-4.0130615234375,46.51641845703125,4.60052490234375,-20.54163614163614,-20.69157509157509,17.242979242979242,-1.7685546875,-0.59033203125,0.6396484375,-2.90679931640625,-1.8768310546875,2.685546875,38.234432234432234,-67.92234432234432,88.46398046398046,0.2080078125,2.046875,-0.17626953125,-0.92315673828125,0.67138671875,1.312255859375,-61.924786324786325,27.288888888888888,40.63345543345543
10:48.755,1.33251953125,-0.18310546875,1.57666015625,-4.17327880859375,34.332275390625,-0.72479248046875,-14.244200244200243,-11.845177045177044,27.88864468864469,-1.76513671875,-0.58740234375,0.62646484375,-1.8463134765625,-0.2288818359375,0.732421875,37.03492063492063,-65.82319902319902,87.56434676434677,0.20166015625,2.0380859375,-0.16259765625,-1.28936767578125,0.74005126953125,1.5716552734375,-61.774847374847376,25.93943833943834,41.533089133089135
10:49.536,1.33251953125,-0.18310546875,1.57666015625,-4.17327880859375,34.332275390625,-0.72479248046875,-11.545299145299145,2.249084249084249,32.08693528693529,-1.71044921875,-0.61474609375,0.65576171875,-1.52587890625,0.23651123046875,-0.29754638671875,38.234432234432234,-68.22222222222221,87.71428571428571,0.2080078125,2.033203125,-0.1728515625,-0.87738037109375,0.30517578125,1.22833251953125,-62.074725274725274,25.639560439560437,39.733821733821735
10:50.413,1.69140625,-0.07958984375,1.125,1.03759765625,-160.49957275390625,1.983642578125,-11.545299145299145,2.249084249084249,32.08693528693529,-1.71044921875,-0.61474609375,0.65576171875,-4.09698486328125,3.73077392578125,3.814697265625,36.285225885225884,-67.02271062271062,90.11330891330891,0.2080078125,2.033203125,-0.1728515625,-1.03759765625,1.15966796875,1.42669677734375,-61.924786324786325,26.23931623931624,39.883760683760684
10:51.193,2.240234375,-0.03662109375,-1.09423828125,14.54925537109375,-113.311767578125,-7.8277587890625,-19.042246642246642,-14.694017094017093,19.34212454212454,-1.7744140625,-0.60986328125,0.68310546875,-4.09698486328125,3.73077392578125,3.814697265625,36.285225885225884,-67.02271062271062,90.11330891330891,0.20263671875,2.044921875,-0.1650390625,-1.03759765625,1.15966796875,1.42669677734375,-61.924786324786325,26.23931623931624,39.883760683760684
10:52.070,1.6953125,-0.0322265625,1.02099609375,7.8277587890625,-131.6070556640625,-2.7618408203125,-23.690354090354088,-25.03980463980464,-15.443711843711844,-1.7802734375,-0.53466796875,0.67822265625,-4.84466552734375,-1.25885009765625,1.22833251953125,37.33479853479853,-67.77240537240537,88.3140415140415,0.19970703125,2.04248046875,-0.17138671875,-1.07574462890625,0.57220458984375,1.739501953125,-61.624908424908426,25.78949938949939,41.98290598290598
10:52.948,1.8603515625,-0.2216796875,0.1953125,-5.68389892578125,27.53448486328125,2.29644775390625,-21.29133089133089,-14.694017094017093,17.992673992673993,-1.7705078125,-0.56640625,0.64794921875,-2.25067138671875,2.26593017578125,0.1983642578125,36.285225885225884,-68.07228327228327,90.41318681318681,0.2001953125,2.03662109375,-0.16650390625,-1.16729736328125,0.28228759765625,1.62506103515625,-61.774847374847376,24.589987789987788,39.433943833943836
10:53.777,1.96875,-0.1103515625,0.427734375,-5.2337646484375,10.55908203125,1.2664794921875,-18.742368742368743,-23.99023199023199,9.746031746031745,-1.7646484375,-0.560546875,0.59814453125,-3.07464599609375,0.732421875,1.9989013671875,38.53431013431013,-67.32258852258852,88.6139194139194,0.20458984375,2.0419921875,-0.16064453125,-0.9307861328125,1.02996826171875,1.6937255859375,-62.52454212454212,24.589987789987788,38.68424908424908
10:54.605,1.96875,-0.1103515625,0.427734375,-5.2337646484375,10.55908203125,1.2664794921875,-19.791941391941393,-21.741147741147742,11.245421245421245,-1.7353515625,-0.658203125,0.568359375,-7.8125,17.791748046875,-6.7291259765625,36.73504273504273,-68.07228327228327,89.06373626373626,0.205078125,2.0439453125,-0.13037109375,-0.70953369140625,-2.8533935546875,-0.1678466796875,-61.924786324786325,25.78949938949939,39.583882783882785
10:55.385,2.0849609375,-0.04833984375,0.04833984375,-19.71435546875,17.181396484375,-1.678466796875,-19.791941391941393,-21.741147741147742,11.245421245421245,-1.7353515625,-0.658203125,0.568359375,-7.8125,17.791748046875,-6.7291259765625,37.934554334554335,-66.42295482295482,86.36483516483516,0.205078125,2.0439453125,-0.13037109375,-0.70953369140625,-2.8533935546875,-0.1678466796875,-61.774847374847376,24.14017094017094,40.033699633699634
10:56.166,2.04345703125,0.08740234375,0.2568359375,7.14874267578125,-7.31658935546875,0.8392333984375,-24.88986568986569,-21.29133089133089,-0.29987789987789987,-1.84033203125,-0.6943359375,0.0546875,9.7503662109375,0.640869140625,12.53509521484375,37.934554334554335,-66.42295482295482,86.36483516483516,0.17333984375,2.03662109375,-0.1416015625,-1.62506103515625,-0.78582763671875,2.6702880859375,-61.774847374847376,24.14017094017094,40.033699633699634
10:56.945,2.05615234375,0.16064453125,0.26220703125,-0.3662109375,3.48663330078125,-1.96075439453125,-18.29255189255189,-20.54163614163614,16.793162393162394,-1.88232421875,-0.58203125,0.0478515625,-4.15802001953125,-4.3487548828125,1.44195556640625,36.135286935286935,-64.92356532356533,70.62124542124542,0.177734375,2.05224609375,-0.140625,-0.5035400390625,0.8087158203125,1.6632080078125,-60.87521367521367,26.23931623931624,42.28278388278388
10:57.774,1.9365234375,-0.1826171875,0.44482421875,0.80108642578125,-14.556884765625,2.50244140625,-23.99023199023199,-23.54041514041514,14.244200244200243,-1.791015625,-0.611328125,0.4970703125,-3.88336181640625,-14.892578125,0.29754638671875,34.186080586080585,-65.22344322344323,70.32136752136752,0.1708984375,2.0517578125,-0.15185546875,0.7781982421875,6.11114501953125,0.45013427734375,-60.275457875457874,24.14017094017094,42.58266178266178
10:58.652,1.9365234375,-0.1826171875,0.44482421875,-0.8697509765625,1.86920166015625,2.960205078125,-9.296214896214895,-20.69157509157509,32.236874236874236,-1.73193359375,-0.62255859375,0.60986328125,-0.72479248046875,-0.35858154296875,2.3345947265625,37.784615384615385,-66.57289377289376,85.16532356532356,0.1552734375,2.05029296875,-0.1630859375,-0.89263916015625,1.1749267578125,1.67083740234375,-62.67448107448107,24.739926739926737,41.23321123321123
10:59.481,2.078125,0.0361328125,0.45263671875,-0.8697509765625,1.86920166015625,2.960205078125,-9.296214896214895,-20.69157509157509,32.236874236874236,-1.73193359375,-0.62255859375,0.60986328125,-2.62451171875,0.457763671875,3.05938720703125,39.13406593406593,-68.07228327228327,88.0141636141636,0.1552734375,2.05029296875,-0.1630859375,-1.10626220703125,0.72479248046875,1.53350830078125,-61.47496947496947,27.438827838827837,40.78339438339438
11:00.309,1.994140625,0.0263671875,0.7197265625,-6.195068359375,0.02288818359375,1.983642578125,-14.244200244200243,-19.941880341880342,28.488400488400487,-1.78125,-0.58056640625,0.55029296875,-2.62451171875,0.457763671875,3.05938720703125,36.73504273504273,-65.82319902319902,87.26446886446887,0.16162109375,2.0439453125,-0.154296875,-1.10626220703125,0.72479248046875,1.53350830078125,-61.774847374847376,27.13894993894994,40.78339438339438
11:01.187,1.97705078125,-0.01513671875,0.62744140625,-2.0599365234375,0.1983642578125,0.0152587890625,-16.043467643467643,-19.19218559218559,31.487179487179485,-1.80615234375,-0.56982421875,0.63525390625,-3.92913818359375,-2.43377685546875,0.40435791015625,36.73504273504273,-65.82319902319902,87.26446886446887,0.16064453125,2.05859375,-0.1640625,-0.78582763671875,1.24359130859375,1.6937255859375,-61.774847374847376,27.13894993894994,40.78339438339438
11:02.064,1.9697265625,-0.0107421875,0.5927734375,-1.7547607421875,-0.00762939453125,1.0986328125,-16.793162393162394,-19.49206349206349,27.738705738705736,-1.74169921875,-0.5517578125,0.68115234375,-0.9918212890625,-0.7171630859375,1.12152099609375,37.03492063492063,-67.77240537240537,87.26446886446887,0.158203125,2.03857421875,-0.16259765625,-0.87738037109375,0.518798828125,1.617431640625,-62.52454212454212,27.13894993894994,41.08327228327228
11:02.845,1.97119140625,-0.03125,0.5771484375,-0.52642822265625,0.3662109375,-0.091552734375,-14.694017094017093,-18.742368742368743,30.737484737484735,-1.75634765625,-0.51025390625,0.6650390625,3.16619873046875,5.48553466796875,2.12860107421875,37.634676434676436,-67.47252747252747,89.21367521367522,0.15771484375,2.0400390625,-0.1806640625,-0.89263916015625,0.701904296875,1.800537109375,-62.82442002442002,25.18974358974359,41.08327228327228
11:03.624,1.97119140625,-0.03125,0.5771484375,-0.52642822265625,0.3662109375,-0.091552734375,-17.992673992673993,-19.941880341880342,31.337240537240536,-1.81103515625,-0.55908203125,0.7109375,-5.9814453125,-12.44354248046875,1.62506103515625,35.68547008547009,-68.22222222222221,88.76385836385836,0.1611328125,2.0458984375,-0.16259765625,-0.8392333984375,0.396728515625,1.73187255859375,-61.47496947496947,25.639560439560437,40.48351648351648
11:04.404,1.9775390625,-0.02392578125,0.58740234375,-0.4730224609375,1.129150390625,-0.213623046875,-17.992673992673993,-19.941880341880342,31.337240537240536,-1.81103515625,-0.55908203125,0.7109375,-2.288818359375,0.3204345703125,1.24359130859375,36.135286935286935,-67.92234432234432,88.16410256410256,0.1611328125,2.0458984375,-0.16259765625,-0.8087158203125,1.24359130859375,1.617431640625,-62.37460317460317,25.78949938949939,40.63345543345543
11:05.184,1.96142578125,-0.0576171875,0.54931640625,1.09100341796875,-2.227783203125,1.62506103515625,-15.293772893772893,-19.64200244200244,30.887423687423688,-1.7548828125,-0.53125,0.74755859375,-2.288818359375,0.3204345703125,1.24359130859375,36.135286935286935,-67.92234432234432,88.16410256410256,0.16455078125,2.04296875,-0.154296875,-0.8087158203125,1.24359130859375,1.617431640625,-62.37460317460317,25.78949938949939,40.63345543345543
11:06.062,1.91943359375,-0.046875,0.6904296875,-3.04412841796875,-21.79718017578125,-0.7476806640625,-15.743589743589743,-18.44249084249084,28.788278388278385,-1.75537109375,-0.53955078125,0.66796875,-2.593994140625,0.701904296875,-0.2288818359375,35.23565323565323,-67.77240537240537,89.66349206349206,0.16015625,2.04443359375,-0.15966796875,-1.1138916015625,0.762939453125,1.73187255859375,-61.924786324786325,24.29010989010989,40.93333333333333
11:06.890,2.0078125,-0.04931640625,0.359375,-1.62506103515625,0.41961669921875,-0.18310546875,-13.644444444444444,-19.791941391941393,31.187301587301587,-1.74267578125,-0.54931640625,0.6591796875,-2.9754638671875,3.0364990234375,0.08392333984375,37.18485958485958,-66.87277167277168,87.11452991452991,0.1669921875,2.0458984375,-0.16650390625,-1.03759765625,0.40435791015625,1.678466796875,-62.67448107448107,26.539194139194137,39.883760683760684
11:07.670,2.0078125,-0.04931640625,0.359375,-1.52587890625,6.53076171875,0.08392333984375,-16.49328449328449,-19.791941391941393,23.690354090354088,-1.74560546875,-0.5732421875,0.63818359375,-3.31878662109375,0.1678466796875,1.007080078125,35.23565323565323,-69.12185592185592,88.6139194139194,0.15478515625,2.04833984375,-0.1611328125,-0.732421875,0.43487548828125,1.434326171875,-62.82442002442002,25.639560439560437,38.98412698412698
11:08.450,1.943359375,-0.02734375,0.61083984375,-1.52587890625,6.53076171875,0.08392333984375,-16.49328449328449,-19.791941391941393,23.690354090354088,-1.74560546875,-0.5732421875,0.63818359375,-2.14385986328125,0.244140625,1.47247314453125,36.435164835164834,-68.97191697191697,88.16410256410256,0.15478515625,2.04833984375,-0.1611328125,-1.3885498046875,0.66375732421875,1.2054443359375,-61.774847374847376,25.93943833943834,42.88253968253968
11:09.231,1.8134765625,-0.0947265625,0.9169921875,2.08282470703125,11.02447509765625,-0.02288818359375,-15.593650793650793,-19.941880341880342,29.987789987789988,-1.76611328125,-0.55078125,0.64453125,-2.14385986328125,0.244140625,1.47247314453125,36.435164835164834,-68.97191697191697,88.16410256410256,0.1513671875,2.0419921875,-0.17333984375,-1.3885498046875,0.66375732421875,1.2054443359375,-61.774847374847376,25.93943833943834,42.88253968253968
11:10.011,1.8798828125,-0.07568359375,0.84521484375,-1.45721435546875,1.57928466796875,-0.7781982421875,-12.894749694749695,-13.044688644688645,30.437606837606836,-1.76416015625,-0.5693359375,0.65625,-2.99835205078125,-0.38909912109375,0.9002685546875,37.18485958485958,-67.17264957264958,89.96336996336996,0.15673828125,2.0400390625,-0.15625,-1.0223388671875,0.69427490234375,1.59454345703125,-65.37338217338217,25.93943833943834,42.88253968253968
11:10.790,1.72509765625,-0.05517578125,0.94775390625,-6.28662109375,12.63427734375,2.0599365234375,-13.494505494505495,-15.743589743589743,31.637118437118435,-1.74560546875,-0.5810546875,0.64501953125,-3.04412841796875,-0.54168701171875,1.38092041015625,37.33479853479853,-66.57289377289376,89.36361416361416,0.1591796875,2.04833984375,-0.1669921875,-1.0833740234375,0.17547607421875,1.89208984375,-62.97435897435897,25.489621489621488,40.63345543345543
11:11.571,1.72509765625,-0.05517578125,0.94775390625,-6.28662109375,12.63427734375,2.0599365234375,-15.293772893772893,-11.845177045177044,27.88864468864469,-1.75048828125,-0.5791015625,0.63720703125,-2.87628173828125,-0.29754638671875,1.56402587890625,38.98412698412698,-67.47252747252747,89.51355311355312,0.166015625,2.05078125,-0.166015625,-0.98419189453125,1.190185546875,1.57928466796875,-63.873992673992674,27.13894993894994,41.832967032967034
11:12.350,1.89208984375,-0.04638671875,0.73583984375,-0.6561279296875,-0.08392333984375,0.06103515625,-15.293772893772893,-11.845177045177044,27.88864468864469,-1.75048828125,-0.5791015625,0.63720703125,-2.87628173828125,-0.29754638671875,1.56402587890625,38.084493284493284,-67.77240537240537,87.56434676434677,0.166015625,2.05078125,-0.166015625,-0.98419189453125,1.190185546875,1.57928466796875,-61.17509157509157,26.23931623931624,41.23321123321123
11:13.131,1.970703125,-0.03857421875,0.60205078125,-2.777099609375,-34.2864990234375,2.46429443359375,-15.893528693528692,-17.842735042735043,33.28644688644688,-1.771484375,-0.56396484375,0.57421875,-2.22015380859375,-1.7547607421875,0.8544921875,38.084493284493284,-67.77240537240537,87.56434676434677,0.15966796875,2.0458984375,-0.166015625,-0.93841552734375,0.8544921875,1.434326171875,-61.17509157509157,26.23931623931624,41.23321123321123
11:13.910,1.96630859375,-0.0869140625,0.54150390625,-2.20489501953125,7.9345703125,0.2593994140625,-14.544078144078144,-13.944322344322345,26.23931623931624,-1.7548828125,-0.5830078125,0.61376953125,-2.75421142578125,1.3885498046875,1.04522705078125,37.18485958485958,-67.47252747252747,89.51355311355312,0.15673828125,2.0439453125,-0.16064453125,-0.83160400390625,0.57220458984375,1.35040283203125,-63.873992673992674,25.93943833943834,40.033699633699634
11:14.691,1.96630859375,-0.0869140625,0.54150390625,-1.89208984375,3.1280517578125,-0.93841552734375,-14.843956043956043,-19.34212454212454,28.488400488400487,-1.76123046875,-0.5771484375,0.61181640625,-3.01361083984375,-0.3509521484375,1.25885009765625,37.934554334554335,-67.17264957264958,88.76385836385836,0.16162109375,2.04638671875,-0.15966796875,-1.02996826171875,0.90789794921875,1.67083740234375,-61.47496947496947,25.93943833943834,40.033699633699634
11:15.471,1.98193359375,-0.06201171875,0.62451171875,-1.89208984375,3.1280517578125,-0.93841552734375,-14.843956043956043,-19.34212454212454,28.488400488400487,-1.76123046875,-0.5771484375,0.61181640625,-2.8228759765625,-0.20599365234375,0.9765625,38.53431013431013,-67.32258852258852,89.06373626373626,0.16162109375,2.04638671875,-0.15966796875,-0.93841552734375,0.80108642578125,1.52587890625,-61.624908424908426,26.83907203907204,40.63345543345543
11:16.250,1.9580078125,-0.083984375,0.5634765625,0.23651123046875,7.5836181640625,0.02288818359375,-12.894749694749695,-18.44249084249084,21.59120879120879,-1.759765625,-0.5673828125,0.62255859375,-2.8228759765625,-0.20599365234375,0.9765625,38.53431013431013,-67.32258852258852,89.06373626373626,0.16455078125,2.04541015625,-0.15771484375,-0.93841552734375,0.80108642578125,1.52587890625,-61.624908424908426,26.83907203907204,40.63345543345543
11:17.030,1.9873046875,-0.09765625,0.56640625,-0.3509521484375,1.5106201171875,-0.77056884765625,-15.743589743589743,-20.54163614163614,30.737484737484735,-1.75341796875,-0.57763671875,0.62890625,-3.41033935546875,0.244140625,0.67901611328125,37.934554334554335,-66.12307692307692,88.76385836385836,0.15966796875,2.03955078125,-0.16259765625,-0.8392333984375,0.96893310546875,1.65557861328125,-61.774847374847376,25.18974358974359,39.433943833943836
11:17.811,2.072265625,-0.05859375,0.79052734375,-1.739501953125,20.28656005859375,3.96728515625,-12.294993894993894,-19.19218559218559,21.59120879120879,-1.76171875,-0.59326171875,0.63427734375,-2.86102294921875,-0.31280517578125,1.0528564453125,36.285225885225884,-68.52210012210011,86.96459096459097,0.16259765625,2.04443359375,-0.16455078125,-1.21307373046875,0.6561279296875,1.77764892578125,-64.47374847374847,25.03980463980464,41.683028083028084
11:18.591,2.072265625,-0.05859375,0.79052734375,-1.739501953125,20.28656005859375,3.96728515625,-14.544078144078144,-19.34212454212454,30.887423687423688,-1.7783203125,-0.56787109375,0.560546875,-2.84576416015625,-2.3040771484375,0.823974609375,36.73504273504273,-67.32258852258852,88.3140415140415,0.15869140625,2.04931640625,-0.16357421875,-1.09100341796875,0.92315673828125,1.739501953125,-62.52454212454212,27.13894993894994,39.733821733821735
11:19.371,1.60888671875,-0.208984375,1.27001953125,1.007080078125,-7.110595703125,-1.220703125,-14.544078144078144,-19.34212454212454,30.887423687423688,-1.7783203125,-0.56787109375,0.560546875,-2.84576416015625,-2.3040771484375,0.823974609375,36.285225885225884,-68.07228327228327,88.6139194139194,0.15869140625,2.04931640625,-0.16357421875,-1.09100341796875,0.92315673828125,1.739501953125,-62.37460317460317,24.739926739926737,40.93333333333333
11:20.151,1.7412109375,-0.203125,1.10400390625,-5.6304931640625,25.04730224609375,-0.70953369140625,-8.846398046398047,-8.546520146520146,44.53186813186813,-1.763671875,-0.5576171875,0.62548828125,-3.5858154296875,1.53350830078125,0.11444091796875,36.285225885225884,-68.07228327228327,88.6139194139194,0.16064453125,2.037109375,-0.16064453125,-1.068115234375,0.78582763671875,1.312255859375,-62.37460317460317,24.739926739926737,40.93333333333333
11:20.930,1.78466796875,-0.18701171875,1.08642578125,-0.1678466796875,-8.18634033203125,0.38909912109375,-8.696459096459096,-13.044688644688645,43.78217338217338,-1.77587890625,-0.59423828125,0.60205078125,-3.45611572265625,-1.01470947265625,1.28173828125,38.53431013431013,-67.02271062271062,89.36361416361416,0.16357421875,2.0400390625,-0.15771484375,-0.80108642578125,1.02996826171875,1.861572265625,-62.37460317460317,25.78949938949939,41.683028083028084
11:21.711,1.78466796875,-0.18701171875,1.08642578125,-2.73895263671875,12.22991943359375,0.6866455078125,-10.195848595848595,-13.794383394383393,42.43272283272283,-1.77197265625,-0.57861328125,0.626953125,-2.4871826171875,0.2593994140625,0.640869140625,35.985347985347985,-68.52210012210011,88.3140415140415,0.16259765625,2.04736328125,-0.15869140625,-0.98419189453125,0.762939453125,1.4801025390625,-62.82442002442002,25.93943833943834,40.48351648351648
11:22.491,1.75146484375,-0.20751953125,1.1015625,-2.73895263671875,12.22991943359375,0.6866455078125,-10.195848595848595,-13.794383394383393,42.43272283272283,-1.77197265625,-0.57861328125,0.626953125,-2.99835205078125,0.29754638671875,0.5035400390625,36.285225885225884,-68.52210012210011,88.6139194139194,0.162109375,2.04248046875,-0.1650390625,-0.93841552734375,0.92315673828125,1.54876708984375,-61.924786324786325,26.539194139194137,40.93333333333333
11:23.368,1.64501953125,-0.1884765625,1.22998046875,-1.9683837890625,1.861572265625,-2.2735595703125,-8.996336996336996,-14.544078144078144,42.73260073260073,-1.76953125,-0.58251953125,0.59521484375,-3.082275390625,0.030517578125,1.35040283203125,38.084493284493284,-68.07228327228327,89.06373626373626,0.162109375,2.04248046875,-0.1650390625,-0.823974609375,0.77056884765625,1.65557861328125,-62.52454212454212,25.93943833943834,40.78339438339438
11:24.197,1.6611328125,-0.1943359375,1.1708984375,-0.8544921875,0.823974609375,-0.25177001953125,-9.596092796092796,-9.296214896214895,43.63223443223443,-1.75927734375,-0.59521484375,0.60498046875,-3.082275390625,0.030517578125,1.35040283203125,38.084493284493284,-68.07228327228327,89.06373626373626,0.154296875,2.03955078125,-0.1630859375,-0.823974609375,0.77056884765625,1.65557861328125,-62.52454212454212,25.93943833943834,40.78339438339438
11:24.977,1.69287109375,-0.1806640625,1.18505859375,-4.55474853515625,12.27569580078125,0.98419189453125,-10.195848595848595,-9.895970695970696,44.38192918192918,-1.74365234375,-0.56787109375,0.6064453125,-2.84576416015625,0.1983642578125,1.44195556640625,38.83418803418803,-67.32258852258852,86.51477411477411,0.16650390625,2.0439453125,-0.16455078125,-0.732421875,1.0223388671875,1.74713134765625,-62.67448107448107,25.489621489621488,41.23321123321123
11:25.757,1.677734375,-0.22607421875,1.16455078125,-2.50244140625,-3.2958984375,0.518798828125,-8.546520146520146,-10.345787545787545,42.13284493284493,-1.76318359375,-0.57568359375,0.60693359375,-3.2196044921875,0.17547607421875,1.10626220703125,37.03492063492063,-66.57289377289376,90.11330891330891,0.15966796875,2.04443359375,-0.1572265625,-0.9307861328125,0.81634521484375,1.50299072265625,-62.52454212454212,26.689133089133087,41.08327228327228
11:26.537,1.677734375,-0.22607421875,1.16455078125,-2.50244140625,-3.2958984375,0.518798828125,-8.546520146520146,-10.345787545787545,42.13284493284493,-1.75,-0.59814453125,0.603515625,-1.89971923828125,0.32806396484375,1.3580322265625,36.73504273504273,-67.77240537240537,89.66349206349206,0.15966796875,2.04736328125,-0.1630859375,-1.12152099609375,0.81634521484375,1.54876708984375,-61.02515262515262,25.18974358974359,40.78339438339438
11:27.317,1.55810546875,-0.248046875,1.34619140625,-3.72314453125,23.01788330078125,1.6326904296875,-9.446153846153846,-11.995115995115995,43.03247863247863,-1.75,-0.59814453125,0.603515625,-1.89971923828125,0.32806396484375,1.3580322265625,37.634676434676436,-67.17264957264958,91.01294261294261,0.15966796875,2.04736328125,-0.1630859375,-1.12152099609375,0.81634521484375,1.54876708984375,-62.074725274725274,25.18974358974359,40.48351648351648
11:28.097,1.28662109375,-0.35302734375,1.50439453125,1.54876708984375,9.368896484375,-1.953125,-6.747252747252747,-6.897191697191697,45.58144078144078,-1.7705078125,-0.58203125,0.59375,-2.02178955078125,-0.762939453125,1.19781494140625,37.634676434676436,-67.17264957264958,91.01294261294261,0.16455078125,2.04443359375,-0.16650390625,-0.9613037109375,0.86212158203125,1.67083740234375,-62.074725274725274,25.18974358974359,40.48351648351648
11:28.926,1.83203125,-0.376953125,0.80224609375,-11.6119384765625,-46.68426513671875,-0.69427490234375,-2.6989010989010986,-3.7484737484737485,50.829304029304026,-1.75341796875,-0.5771484375,0.60400390625,-2.3345947265625,-0.22125244140625,1.86920166015625,36.135286935286935,-67.17264957264958,89.21367521367522,0.154296875,2.046875,-0.15283203125,-1.068115234375,0.64849853515625,1.8157958984375,-62.67448107448107,25.78949938949939,40.18363858363858
11:29.754,1.9443359375,-0.2666015625,0.67138671875,1.09100341796875,4.35638427734375,-4.8980712890625,-2.6989010989010986,-16.343345543345542,44.38192918192918,-1.78076171875,-0.60546875,0.6279296875,-5.2490234375,-2.58636474609375,0.8392333984375,36.73504273504273,-67.02271062271062,88.6139194139194,0.1591796875,2.04638671875,-0.1591796875,-0.5950927734375,0.78582763671875,2.01416015625,-61.17509157509157,25.78949938949939,40.93333333333333
11:30.534,1.9443359375,-0.2666015625,0.67138671875,1.09100341796875,4.35638427734375,-4.8980712890625,-2.6989010989010986,-16.343345543345542,44.38192918192918,-1.7548828125,-0.59619140625,0.595703125,-3.28826904296875,1.1749267578125,1.22833251953125,37.934554334554335,-68.22222222222221,87.71428571428571,0.166015625,2.04638671875,-0.16748046875,-0.90789794921875,0.55694580078125,1.59454345703125,-61.774847374847376,25.639560439560437,41.533089133089135
11:31.314,1.9013671875,-0.18310546875,0.77001953125,-0.31280517578125,6.43157958984375,-1.73187255859375,-8.846398046398047,-22.19096459096459,35.08571428571428,-1.7548828125,-0.59619140625,0.595703125,-3.28826904296875,1.1749267578125,1.22833251953125,38.084493284493284,-65.22344322344323,87.56434676434677,0.166015625,2.04638671875,-0.16748046875,-0.90789794921875,0.55694580078125,1.59454345703125,-61.47496947496947,27.438827838827837,41.08327228327228
11:32.094,2.0048828125,-0.13427734375,0.5146484375,-6.03485107421875,16.1895751953125,2.4566650390625,-11.995115995115995,-21.44126984126984,36.73504273504273,-1.740234375,-0.595703125,0.60302734375,-4.60052490234375,0.12969970703125,1.373291015625,38.084493284493284,-65.22344322344323,87.56434676434677,0.16943359375,2.041015625,-0.1669921875,-1.1138916015625,0.8392333984375,1.6632080078125,-61.47496947496947,27.438827838827837,41.08327228327228
11:32.874,1.982421875,-0.08203125,0.42529296875,-1.28173828125,-6.29425048828125,2.72369384765625,-14.843956043956043,-20.69157509157509,32.98656898656898,-1.74462890625,-0.59228515625,0.59423828125,-3.875732421875,0.2288818359375,1.04522705078125,39.433943833943836,-68.22222222222221,88.46398046398046,0.16064453125,2.0439453125,-0.18212890625,-0.95367431640625,0.7171630859375,1.71661376953125,-62.82442002442002,25.18974358974359,40.48351648351648
11:33.703,1.982421875,-0.08203125,0.42529296875,-1.83868408203125,-1.97601318359375,2.01416015625,-14.394139194139193,-22.34090354090354,31.187301587301587,-1.75537109375,-0.58837890625,0.599609375,-2.55584716796875,0.0152587890625,1.4190673828125,36.88498168498168,-66.42295482295482,88.16410256410256,0.1552734375,2.0380859375,-0.1728515625,-1.2664794921875,0.640869140625,1.46484375,-62.82442002442002,25.18974358974359,40.033699633699634
11:34.532,1.99169921875,-0.06982421875,0.40673828125,-1.83868408203125,-1.97601318359375,2.01416015625,-14.394139194139193,-22.34090354090354,31.187301587301587,-1.74462890625,-0.6142578125,0.59765625,-4.03594970703125,0.4730224609375,3.3111572265625,36.88498168498168,-67.47252747252747,87.71428571428571,0.162109375,2.0419921875,-0.16259765625,-1.15203857421875,0.5950927734375,1.28936767578125,-61.02515262515262,26.389255189255188,41.08327228327228
11:35.312,1.95947265625,-0.34130859375,0.2822265625,-13.24462890625,47.5311279296875,19.75250244140625,-18.892307692307693,-25.18974358974359,23.99023199023199,-1.74462890625,-0.6142578125,0.59765625,-4.03594970703125,0.4730224609375,3.3111572265625,37.33479853479853,-67.02271062271062,86.96459096459097,0.162109375,2.0419921875,-0.16259765625,-1.15203857421875,0.5950927734375,1.28936767578125,-61.624908424908426,27.288888888888888,40.93333333333333
11:36.092,1.04833984375,-0.42626953125,1.70947265625,-0.42724609375,-1.22833251953125,-0.06103515625,-4.498168498168498,-26.539194139194137,30.137728937728937,-1.76708984375,-0.58740234375,0.57666015625,-3.77655029296875,0.96893310546875,0.89263916015625,37.33479853479853,-67.02271062271062,86.96459096459097,0.15966796875,2.0458984375,-0.177734375,-1.1444091796875,0.31280517578125,1.44195556640625,-61.624908424908426,27.288888888888888,40.93333333333333
11:36.969,1.08154296875,-0.21826171875,1.8359375,6.72149658203125,-4.2266845703125,-7.82012939453125,-0.29987789987789987,6.447374847374848,45.73137973137973,-1.76708984375,-0.595703125,0.6142578125,-1.89208984375,-1.373291015625,-0.67901611328125,36.135286935286935,-68.97191697191697,86.66471306471306,0.1669921875,2.0439453125,-0.16455078125,-1.18255615234375,0.9613037109375,1.47247314453125,-61.624908424908426,26.23931623931624,40.93333333333333
11:37.847,1.615234375,-0.1982421875,1.203125,3.99017333984375,-40.61126708984375,-1.53350830078125,-2.848840048840049,5.997557997557998,42.88253968253968,-1.755859375,-0.611328125,0.611328125,-3.6468505859375,1.16729736328125,0.1068115234375,36.73504273504273,-68.07228327228327,88.0141636141636,0.166015625,2.0390625,-0.1708984375,-1.33514404296875,0.5340576171875,1.495361328125,-62.37460317460317,24.739926739926737,40.93333333333333
11:38.676,1.615234375,-0.1982421875,1.203125,2.2735595703125,-9.43756103515625,1.60980224609375,-5.247863247863248,-10.945543345543346,40.33357753357753,-1.7744140625,-0.59375,0.5927734375,-2.716064453125,-0.5340576171875,1.2359619140625,35.53553113553114,-69.12185592185592,89.06373626373626,0.15869140625,2.04541015625,-0.15380859375,-1.16729736328125,0.9307861328125,1.93023681640625,-62.074725274725274,25.18974358974359,40.033699633699634
11:39.504,1.90869140625,-0.3232421875,0.615234375,2.2735595703125,-9.43756103515625,1.60980224609375,-3.7484737484737485,-18.742368742368743,38.234432234432234,-1.76904296875,-0.59912109375,0.59375,-3.19671630859375,-1.31988525390625,0.92315673828125,35.53553113553114,-65.82319902319902,88.3140415140415,0.1611328125,2.04345703125,-0.1640625,-1.09100341796875,0.60272216796875,1.6021728515625,-61.624908424908426,25.03980463980464,41.23321123321123
11:40.333,1.64697265625,-0.31494140625,1.15087890625,-5.04302978515625,-3.814697265625,0.69427490234375,-3.7484737484737485,-18.742368742368743,38.234432234432234,-1.76904296875,-0.59912109375,0.59375,-3.19671630859375,-1.31988525390625,0.92315673828125,37.18485958485958,-66.42295482295482,89.96336996336996,0.1611328125,2.04345703125,-0.1640625,-1.09100341796875,0.60272216796875,1.6021728515625,-62.52454212454212,27.13894993894994,41.08327228327228
11:41.162,1.892578125,-0.17431640625,1.0283203125,6.6070556640625,-3.05938720703125,-2.28118896484375,-7.646886446886446,-11.245421245421245,38.98412698412698,-1.77587890625,-0.62841796875,0.63623046875,-3.021240234375,1.9683837890625,-0.091552734375,37.18485958485958,-66.42295482295482,89.96336996336996,0.1611328125,2.04150390625,-0.1630859375,-1.007080078125,0.4730224609375,1.67083740234375,-62.52454212454212,27.13894993894994,41.08327228327228
11:41.942,1.43798828125,-0.2802734375,1.4130859375,-3.1585693359375,12.0697021484375,-0.14495849609375,-8.996336996336996,-14.094261294261294,34.186080586080585,-1.76171875,-0.60986328125,0.58984375,-3.3111572265625,-0.457763671875,1.48773193359375,37.03492063492063,-66.57289377289376,89.06373626373626,0.1572265625,2.04736328125,-0.173828125,-0.87738037109375,1.10626220703125,1.30462646484375,-63.27423687423687,25.639560439560437,40.033699633699634
11:42.722,1.43798828125,-0.2802734375,1.4130859375,1.129150390625,-22.9949951171875,2.0294189453125,-5.247863247863248,-6.597313797313797,41.683028083028084,-1.76416015625,-0.57568359375,0.60986328125,-2.17437744140625,-0.67138671875,2.00653076171875,37.634676434676436,-68.97191697191697,91.01294261294261,0.15576171875,2.04833984375,-0.166015625,-0.89263916015625,0.80108642578125,1.67083740234375,-61.624908424908426,26.83907203907204,40.93333333333333
11:43.502,1.52783203125,-0.265625,1.44091796875,1.129150390625,-22.9949951171875,2.0294189453125,-5.247863247863248,-6.597313797313797,41.683028083028084,-1.76513671875,-0.56640625,0.65771484375,-9.19342041015625,3.91387939453125,-1.82342529296875,37.784615384615385,-66.57289377289376,89.66349206349206,0.18505859375,2.04638671875,-0.13525390625,-2.90679931640625,-4.791259765625,3.51715087890625,-63.42417582417582,25.489621489621488,41.23321123321123
11:44.282,1.6845703125,-0.30908203125,1.15478515625,18.951416015625,-104.461669921875,-3.9825439453125,-7.347008547008547,-5.547741147741148,41.683028083028084,-1.76513671875,-0.56640625,0.65771484375,-9.19342041015625,3.91387939453125,-1.82342529296875,37.784615384615385,-66.57289377289376,89.66349206349206,0.18505859375,2.04638671875,-0.13525390625,-2.90679931640625,-4.791259765625,3.51715087890625,-61.624908424908426,26.539194139194137,40.18363858363858
11:45.111,1.81103515625,0.033203125,1.076171875,-2.5634765625,-20.1416015625,-9.33837890625,-5.397802197802197,-11.395360195360196,41.832967032967034,-1.837890625,-0.705078125,0.1025390625,-6.32476806640625,9.48333740234375,-0.16021728515625,37.634676434676436,-69.42173382173382,90.26324786324786,0.16357421875,2.05126953125,-0.1376953125,-0.86212158203125,0.885009765625,1.36566162109375,-61.624908424908426,26.539194139194137,40.18363858363858
11:45.939,1.69140625,0.0791015625,1.10693359375,-2.67791748046875,-0.2288818359375,0.6256103515625,-9.895970695970696,-13.644444444444444,38.83418803418803,-1.822265625,-0.69580078125,0.0283203125,-2.20489501953125,-3.57818603515625,0.40435791015625,37.934554334554335,-67.17264957264958,78.71794871794872,0.1650390625,2.04345703125,-0.14306640625,-1.10626220703125,0.77056884765625,1.6021728515625,-61.924786324786325,25.03980463980464,43.03247863247863
11:46.719,1.69140625,0.0791015625,1.10693359375,0.46539306640625,-0.20599365234375,-0.518798828125,-10.645665445665445,-6.147496947496947,37.48473748473749,-1.8193359375,-0.7041015625,0.14208984375,-1.89971923828125,-0.55694580078125,0.9307861328125,36.135286935286935,-66.87277167277168,73.32014652014652,0.16162109375,2.05224609375,-0.142578125,-0.8392333984375,0.72479248046875,1.71661376953125,-63.724053724053725,26.23931623931624,40.18363858363858
11:47.499,1.890625,-0.025390625,0.71484375,0.46539306640625,-0.20599365234375,-0.518798828125,-10.645665445665445,-6.147496947496947,37.48473748473749,-1.8486328125,-0.69970703125,0.09912109375,-3.2958984375,-0.7781982421875,1.4801025390625,37.33479853479853,-64.77362637362637,76.01904761904761,0.16943359375,2.04150390625,-0.13525390625,-0.9002685546875,0.6866455078125,1.62506103515625,-62.52454212454212,23.84029304029304,41.832967032967034
11:48.280,1.9658203125,0.013671875,0.61962890625,-0.55694580078125,-10.711669921875,0.72479248046875,-12.894749694749695,-16.943101343101343,31.487179487179485,-1.8486328125,-0.69970703125,0.09912109375,-3.2958984375,-0.7781982421875,1.4801025390625,37.33479853479853,-64.77362637362637,76.01904761904761,0.16943359375,2.04150390625,-0.13525390625,-0.9002685546875,0.6866455078125,1.62506103515625,-62.52454212454212,23.84029304029304,41.832967032967034
11:49.060,2.0185546875,0.029296875,0.56201171875,3.2806396484375,11.43646240234375,-2.8076171875,-12.444932844932845,-16.793162393162394,30.587545787545785,-1.8291015625,-0.68408203125,0.1220703125,-1.91497802734375,-1.77001953125,-0.1068115234375,37.03492063492063,-65.82319902319902,76.76874236874237,0.171875,2.0458984375,-0.1416015625,-0.9002685546875,0.7476806640625,1.708984375,-61.02515262515262,25.18974358974359,41.533089133089135
11:49.888,1.994140625,0.046875,0.537109375,-2.31170654296875,2.12860107421875,0.41961669921875,-14.244200244200243,-18.892307692307693,29.537973137973136,-1.79931640625,-0.7080078125,0.09619140625,-3.59344482421875,2.5177001953125,0.29754638671875,39.583882783882785,-64.47374847374847,75.71916971916971,0.1650390625,2.04736328125,-0.13720703125,-1.0833740234375,1.40380859375,1.4495849609375,-62.82442002442002,25.639560439560437,41.832967032967034
11:50.668,1.994140625,0.046875,0.537109375,-0.74005126953125,2.05230712890625,0.8392333984375,-14.993894993894994,-15.893528693528692,25.03980463980464,-1.81640625,-0.70703125,0.13525390625,-2.76947021484375,0.762939453125,0.9307861328125,36.285225885225884,-66.57289377289376,75.71916971916971,0.16455078125,2.04345703125,-0.1416015625,-0.96893310546875,0.6866455078125,1.5869140625,-63.42417582417582,24.739926739926737,42.28278388278388
11:51.594,1.97412109375,0.06298828125,0.62060546875,-0.74005126953125,2.05230712890625,0.8392333984375,-15.893528693528692,-19.34212454212454,30.887423687423688,-1.82470703125,-0.685546875,0.14404296875,-1.861572265625,-1.53350830078125,0.8544921875,37.634676434676436,-65.37338217338217,74.81953601953602,0.16943359375,2.0498046875,-0.138671875,-0.946044921875,1.2969970703125,1.28173828125,-61.774847374847376,24.88986568986569,41.533089133089135
11:52.374,1.92724609375,-0.0234375,0.77880859375,-15.5792236328125,33.68377685546875,-1.40380859375,-15.893528693528692,-19.34212454212454,30.887423687423688,-1.82470703125,-0.685546875,0.14404296875,-1.861572265625,-1.53350830078125,0.8544921875,36.285225885225884,-65.82319902319902,75.71916971916971,0.16943359375,2.0498046875,-0.138671875,-0.946044921875,1.2969970703125,1.28173828125,-63.724053724053725,25.03980463980464,44.08205128205128
11:53.154,1.81982421875,-0.2294921875,0.9150390625,-0.244140625,0.09918212890625,3.27301025390625,-15.443711843711844,-12.294993894993894,30.737484737484735,-1.81884765625,-0.7080078125,0.216796875,-4.21142578125,-1.02996826171875,1.59454345703125,36.285225885225884,-65.82319902319902,75.71916971916971,0.162109375,2.04052734375,-0.1435546875,-1.03759765625,0.2593994140625,1.41143798828125,-63.724053724053725,25.03980463980464,44.08205128205128
11:53.934,1.8544921875,-0.1103515625,0.84912109375,5.79833984375,5.39398193359375,0.31280517578125,-5.997557997557998,-14.694017094017093,44.23199023199023,-1.8076171875,-0.736328125,0.078125,-4.32586669921875,2.95257568359375,1.71661376953125,37.33479853479853,-65.22344322344323,79.91746031746031,0.16064453125,2.0478515625,-0.1396484375,-0.87738037109375,0.81634521484375,1.922607421875,-61.924786324786325,26.83907203907204,41.23321123321123
11:54.715,1.8544921875,-0.1103515625,0.84912109375,-1.5106201171875,3.99017333984375,3.0670166015625,-7.197069597069596,-14.244200244200243,32.98656898656898,-1.818359375,-0.70068359375,0.15673828125,-2.2735595703125,-2.2125244140625,1.64031982421875,40.63345543345543,-65.52332112332113,76.76874236874237,0.16357421875,2.04052734375,-0.134765625,-1.007080078125,0.67138671875,1.495361328125,-63.27423687423687,27.438827838827837,42.13284493284493
11:55.494,1.716796875,-0.14306640625,1.1064453125,-1.5106201171875,3.99017333984375,3.0670166015625,-7.197069597069596,-14.244200244200243,32.98656898656898,-1.83203125,-0.693359375,0.16650390625,-4.5013427734375,-3.2501220703125,2.17437744140625,38.83418803418803,-66.27301587301586,79.46764346764347,0.162109375,2.0419921875,-0.13037109375,-0.66375732421875,1.2054443359375,1.21307373046875,-62.37460317460317,26.23931623931624,42.73260073260073
11:56.274,1.8837890625,-0.19970703125,0.9130859375,1.16729736328125,-0.244140625,5.4168701171875,-8.696459096459096,-14.544078144078144,42.43272283272283,-1.83203125,-0.693359375,0.16650390625,-4.5013427734375,-3.2501220703125,2.17437744140625,38.83418803418803,-66.27301587301586,79.46764346764347,0.162109375,2.0419921875,-0.13037109375,-0.66375732421875,1.2054443359375,1.21307373046875,-62.37460317460317,26.23931623931624,42.73260073260073
11:57.054,1.6796875,-0.3876953125,1.22265625,5.08880615234375,46.600341796875,9.8724365234375,-9.296214896214895,-17.54285714285714,30.887423687423688,-1.7978515625,-0.63232421875,0.6142578125,-0.35858154296875,-0.579833984375,0.19073486328125,37.18485958485958,-66.42295482295482,79.76752136752137,0.23095703125,2.03466796875,-0.17578125,-1.30462646484375,-0.091552734375,5.21087646484375,-61.924786324786325,26.23931623931624,41.683028083028084
11:57.883,2.0107421875,-0.29736328125,0.71142578125,-13.97705078125,6.24847412109375,-8.24737548828125,-4.1982905982905985,-10.945543345543346,48.13040293040293,-1.76123046875,-0.57958984375,0.5419921875,-3.97491455078125,-5.94329833984375,0.8697509765625,38.53431013431013,-67.32258852258852,88.3140415140415,0.263671875,2.03125,-0.16552734375,-0.5950927734375,1.42669677734375,1.33514404296875,-62.67448107448107,26.23931623931624,39.883760683760684
11:58.663,2.0107421875,-0.29736328125,0.71142578125,8.94927978515625,-4.3792724609375,-2.5482177734375,-0.7496947496947497,-12.145054945054945,38.83418803418803,-1.81103515625,-0.572265625,0.51416015625,-6.76727294921875,1.57928466796875,-0.2288818359375,38.084493284493284,-67.02271062271062,87.56434676434677,0.26904296875,2.03857421875,-0.18115234375,-1.2054443359375,1.09100341796875,0.95367431640625,-62.82442002442002,25.639560439560437,40.78339438339438
11:59.443,1.89453125,-0.14990234375,0.705078125,8.94927978515625,-4.3792724609375,-2.5482177734375,-0.7496947496947497,-12.145054945054945,38.83418803418803,-1.81103515625,-0.572265625,0.51416015625,-4.5013427734375,-1.312255859375,2.26593017578125,37.18485958485958,-68.67203907203907,87.11452991452991,0.265625,2.0322265625,-0.1640625,-1.0223388671875,0.48065185546875,1.7547607421875,-61.924786324786325,25.489621489621488,39.13406593406593
12:00.321,1.84375,-0.2255859375,0.74951171875,7.45391845703125,-9.63592529296875,7.01141357421875,-8.396581196581197,-18.44249084249084,38.98412698412698,-1.8173828125,-0.583984375,0.50927734375,-4.5013427734375,-1.312255859375,2.26593017578125,36.285225885225884,-66.57289377289376,88.3140415140415,0.265625,2.0322265625,-0.1640625,-1.0223388671875,0.48065185546875,1.7547607421875,-62.97435897435897,24.29010989010989,40.93333333333333
12:01.101,1.98291015625,0.00244140625,0.73974609375,-0.14495849609375,0.69427490234375,0.67901611328125,-4.648107448107448,-17.54285714285714,44.98168498168498,-1.73291015625,-0.6455078125,0.54052734375,-3.47900390625,0.16021728515625,0.75531005859375,36.285225885225884,-66.57289377289376,88.3140415140415,0.26953125,2.03515625,-0.173828125,-1.0833740234375,1.068115234375,1.76239013671875,-62.97435897435897,24.29010989010989,40.93333333333333
12:01.881,1.97607421875,0.0244140625,0.53125,2.7313232421875,-16.2506103515625,-0.43487548828125,-13.644444444444444,-20.24175824175824,34.186080586080585,-1.73779296875,-0.63916015625,0.5498046875,-3.265380859375,-0.22125244140625,1.25885009765625,36.285225885225884,-68.07228327228327,86.51477411477411,0.259765625,2.03125,-0.17822265625,-0.92315673828125,0.79345703125,1.8768310546875,-61.924786324786325,25.489621489621488,40.63345543345543
12:02.661,1.97607421875,0.0244140625,0.53125,-0.38909912109375,-13.81683349609375,-1.41143798828125,-15.893528693528692,-22.49084249084249,30.287667887667887,-1.75732421875,-0.63916015625,0.5302734375,-3.10516357421875,-0.42724609375,0.946044921875,37.634676434676436,-66.87277167277168,88.16410256410256,0.2587890625,2.03173828125,-0.18408203125,-0.946044921875,1.0833740234375,1.495361328125,-62.37460317460317,25.03980463980464,41.23321123321123
12:03.441,2.0361328125,0.06005859375,0.5078125,-0.38909912109375,-13.81683349609375,-1.41143798828125,-15.893528693528692,-22.49084249084249,30.287667887667887,-1.75732421875,-0.63916015625,0.5302734375,-2.8228759765625,-1.54876708984375,0.91552734375,37.784615384615385,-67.32258852258852,88.6139194139194,0.2587890625,2.03173828125,-0.18408203125,-1.0528564453125,1.068115234375,1.41143798828125,-61.624908424908426,24.29010989010989,40.93333333333333
12:04.221,1.62353515625,-0.05908203125,1.19970703125,-4.45556640625,0.66375732421875,-2.92205810546875,-15.743589743589743,-19.791941391941393,31.187301587301587,-1.76708984375,-0.65380859375,0.56640625,-2.8228759765625,-1.54876708984375,0.91552734375,37.784615384615385,-67.32258852258852,88.6139194139194,0.25830078125,2.0283203125,-0.1728515625,-1.0528564453125,1.068115234375,1.41143798828125,-61.624908424908426,24.29010989010989,40.93333333333333
12:05.001,1.96923828125,0.09765625,0.44580078125,2.0599365234375,-18.5394287109375,-3.5858154296875,-12.444932844932845,-11.395360195360196,40.48351648351648,-1.76904296875,-0.67529296875,0.576171875,-4.67681884765625,-0.72479248046875,1.09100341796875,38.234432234432234,-68.22222222222221,88.76385836385836,0.25244140625,2.0419921875,-0.1767578125,-0.93841552734375,0.95367431640625,1.56402587890625,-62.074725274725274,24.88986568986569,40.48351648351648
12:05.781,1.77880859375,-0.0732421875,1.28564453125,-3.70025634765625,17.4102783203125,5.42449951171875,-13.794383394383393,-22.49084249084249,30.887423687423688,-1.7568359375,-0.640625,0.55810546875,-4.08935546875,0.213623046875,1.99127197265625,38.234432234432234,-68.22222222222221,87.71428571428571,0.248046875,2.0361328125,-0.16796875,-0.98419189453125,0.640869140625,1.495361328125,-63.27423687423687,23.09059829059829,39.433943833943836
12:06.561,1.77880859375,-0.0732421875,1.28564453125,-3.70025634765625,17.4102783203125,5.42449951171875,-11.245421245421245,-10.645665445665445,41.98290598290598,-1.7490234375,-0.66015625,0.56494140625,-2.28118896484375,0.12969970703125,1.1138916015625,38.234432234432234,-68.97191697191697,88.46398046398046,0.25146484375,2.04052734375,-0.16796875,-0.84686279296875,0.96893310546875,1.44195556640625,-62.97435897435897,24.29010989010989,38.084493284493284
12:07.341,1.87890625,0.00634765625,0.58544921875,11.14654541015625,-69.03839111328125,-2.8533935546875,-11.245421245421245,-10.645665445665445,41.98290598290598,-1.7490234375,-0.66015625,0.56494140625,-2.28118896484375,0.12969970703125,1.1138916015625,38.83418803418803,-68.07228327228327,88.6139194139194,0.25146484375,2.04052734375,-0.16796875,-0.84686279296875,0.96893310546875,1.44195556640625,-62.82442002442002,25.639560439560437,39.433943833943836
12:08.121,1.7744140625,-0.1943359375,1.095703125,5.97381591796875,40.0238037109375,5.1727294921875,-13.644444444444444,-19.791941391941393,31.487179487179485,-1.77294921875,-0.62451171875,0.52294921875,-2.23541259765625,0.7171630859375,3.021240234375,38.83418803418803,-68.07228327228327,88.6139194139194,0.24658203125,2.03369140625,-0.15673828125,-1.31988525390625,0.9002685546875,1.25885009765625,-62.82442002442002,25.639560439560437,39.433943833943836
12:08.901,1.208984375,-0.43212890625,1.6083984375,0.7171630859375,0.5035400390625,-1.2054443359375,-4.498168498168498,-11.245421245421245,44.68180708180708,-1.78955078125,-0.61083984375,0.53515625,-3.0670166015625,0.7781982421875,0.99945068359375,38.68424908424908,-67.92234432234432,87.71428571428571,0.24365234375,2.03466796875,-0.1728515625,-1.19781494140625,0.61798095703125,1.3427734375,-61.17509157509157,24.739926739926737,40.63345543345543
12:09.681,1.208984375,-0.43212890625,1.6083984375,13.32855224609375,-56.03790283203125,-15.55633544921875,0.7496947496947497,0.4498168498168498,45.73137973137973,-1.77734375,-0.61767578125,0.56103515625,-2.15911865234375,-0.77056884765625,-1.617431640625,35.38559218559219,-66.87277167277168,87.11452991452991,0.24609375,2.0302734375,-0.17041015625,-1.0986328125,0.52642822265625,1.79290771484375,-62.82442002442002,23.39047619047619,39.733821733821735
12:10.461,1.7265625,-0.2392578125,1.32470703125,13.32855224609375,-56.03790283203125,-15.55633544921875,0.7496947496947497,0.4498168498168498,45.73137973137973,-1.77734375,-0.61767578125,0.56103515625,-3.6163330078125,0.1983642578125,0.49591064453125,37.33479853479853,-69.87155067155066,89.06373626373626,0.24609375,2.0302734375,-0.17041015625,-1.0528564453125,0.3814697265625,1.77001953125,-61.624908424908426,25.03980463980464,38.53431013431013
12:11.241,1.5439453125,-0.3564453125,1.22216796875,5.279541015625,-0.152587890625,3.16619873046875,-2.548962148962149,-5.697680097680098,42.13284493284493,-1.7666015625,-0.619140625,0.5419921875,-3.6163330078125,0.1983642578125,0.49591064453125,37.33479853479853,-69.87155067155066,89.06373626373626,0.2451171875,2.03271484375,-0.1650390625,-1.0528564453125,0.3814697265625,1.77001953125,-61.624908424908426,25.03980463980464,38.53431013431013
