time,hand_accelerometer_x,hand_accelerometer_y,hand_accelerometer_z,hand_gyroscope_x,hand_gyroscope_y,hand_gyroscope_z,hand_magnetometer_x,hand_magnetometer_y,hand_magnetometer_z,ankle_accelerometer_x,ankle_accelerometer_y,ankle_accelerometer_z,ankle_gyroscope_x,ankle_gyroscope_y,ankle_gyroscope_z,ankle_magnetometer_x,ankle_magnetometer_y,ankle_magnetometer_z,chest_accelerometer_x,chest_accelerometer_y,chest_accelerometer_z,chest_gyroscope_x,chest_gyroscope_y,chest_gyroscope_z,chest_magnetometer_x,chest_magnetometer_y,chest_magnetometer_z
42:10.315,-0.171875,0.29345703125,2.00830078125,-1.07574462890625,0.67901611328125,0.06866455078125,12.444932844932845,-15.143833943833943,79.16776556776557,-0.03076171875,-1.9462890625,0.34619140625,-2.50244140625,-0.8087158203125,0.9002685546875,57.72649572649573,-72.42051282051281,49.62979242979243,-1.36181640625,1.47265625,-0.06689453125,-0.83160400390625,0.457763671875,1.4190673828125,-42.43272283272283,39.13406593406593,-101.80854700854701
42:11.095,-0.14599609375,0.296875,2.015625,-1.739501953125,0.78582763671875,0.091552734375,10.195848595848595,-14.694017094017093,77.96825396825396,-0.04052734375,-1.94140625,0.34619140625,-3.2806396484375,0.06866455078125,1.27410888671875,57.12673992673992,-70.77118437118438,50.22954822954823,-1.35302734375,1.4716796875,-0.0810546875,-0.9613037109375,0.81634521484375,1.7852783203125,-44.23199023199023,39.13406593406593,-102.85811965811965
42:11.973,-0.14599609375,0.296875,2.015625,0.1220703125,-8.636474609375,31.31103515625,11.245421245421245,-15.743589743589743,77.96825396825396,-0.10693359375,-1.9130859375,0.3349609375,-11.7340087890625,-14.984130859375,6.8511962890625,60.125518925518925,-71.07106227106227,52.778510378510376,-1.39404296875,1.4326171875,-0.02001953125,-16.30401611328125,8.758544921875,-6.79779052734375,-43.03247863247863,39.733821733821735,-104.05763125763126
42:12.753,0.0341796875,0.27294921875,2.01025390625,0.1220703125,-8.636474609375,31.31103515625,11.245421245421245,-15.743589743589743,77.96825396825396,-0.10693359375,-1.9130859375,0.3349609375,-5.95855712890625,1.68609619140625,-0.3814697265625,57.42661782661782,-69.72161172161172,50.22954822954823,-1.39404296875,1.4326171875,-0.02001953125,-2.95257568359375,0.57220458984375,1.1444091796875,-54.12796092796093,36.135286935286935,-110.35506715506715
42:13.581,0.29296875,0.1533203125,2.0166015625,-0.0457763671875,2.777099609375,1.708984375,16.793162393162394,-15.443711843711844,81.11697191697192,-0.166015625,-1.94677734375,0.0380859375,-5.95855712890625,1.68609619140625,-0.3814697265625,57.42661782661782,-69.72161172161172,50.22954822954823,-1.46484375,1.24072265625,-0.11376953125,-2.95257568359375,0.57220458984375,1.1444091796875,-54.12796092796093,36.135286935286935,-110.35506715506715
42:14.410,0.31884765625,0.1640625,1.99560546875,-1.41143798828125,-0.25177001953125,0.0457763671875,39.733821733821735,-15.443711843711844,96.4107448107448,-0.15869140625,-1.962890625,0.01904296875,-3.7841796875,-1.01470947265625,1.70135498046875,57.12673992673992,-64.17387057387057,44.53186813186813,-1.4296875,1.22900390625,-0.06298828125,-18.40972900390625,13.5345458984375,7.3089599609375,-46.48107448107448,37.03492063492063,-107.05641025641025
42:15.190,0.296875,0.142578125,1.9951171875,-0.43487548828125,3.68499755859375,0.67138671875,37.634676434676436,-15.743589743589743,98.06007326007325,-0.2470703125,-1.98388671875,0.03173828125,-1.28936767578125,-12.1917724609375,4.11224365234375,56.227106227106226,-65.52332112332113,43.03247863247863,-1.54931640625,1.26171875,0.1865234375,-18.21136474609375,4.34112548828125,-6.21795654296875,-51.87887667887668,34.485958485958484,-114.7032967032967
42:15.970,0.296875,0.142578125,1.9951171875,-2.3345947265625,3.0670166015625,0.579833984375,37.934554334554335,-16.793162393162394,96.4107448107448,-0.26953125,-1.94580078125,0.0244140625,1.25885009765625,13.6566162109375,0.55694580078125,51.87887667887668,-64.02393162393162,45.13162393162393,-1.4423828125,1.38623046875,0.08544921875,4.47845458984375,3.7841796875,3.41033935546875,-86.36483516483516,24.589987789987788,-92.2124542124542
42:16.799,0.318359375,0.16552734375,2.00634765625,-2.3345947265625,3.0670166015625,0.579833984375,37.934554334554335,-16.793162393162394,96.4107448107448,-0.271484375,-1.96435546875,0.00439453125,-0.5340576171875,3.28826904296875,0.8697509765625,52.928449328449325,-62.224664224664224,47.230769230769226,-1.4423828125,1.38623046875,0.08544921875,17.0745849609375,-7.43865966796875,12.7105712890625,-80.81709401709402,24.589987789987788,-100.9089133089133
42:17.628,0.3369140625,0.1689453125,2.00341796875,-1.64031982421875,0.5035400390625,-2.64739990234375,39.583882783882785,-14.544078144078144,97.31037851037851,-0.271484375,-1.96435546875,0.00439453125,-0.5340576171875,3.28826904296875,0.8697509765625,51.87887667887668,-61.924786324786325,44.08205128205128,-1.4130859375,1.45166015625,0.12060546875,17.0745849609375,-7.43865966796875,12.7105712890625,-73.91990231990232,24.739926739926737,-110.95482295482294
42:18.505,0.32958984375,0.162109375,2.0283203125,-1.15966796875,-0.48065185546875,0.45013427734375,37.934554334554335,-16.49328449328449,96.1108669108669,-0.224609375,-1.9638671875,0.00439453125,-3.12042236328125,-3.94439697265625,2.26593017578125,51.87887667887668,-61.924786324786325,44.08205128205128,-1.3662109375,1.46240234375,0.0205078125,3.71551513671875,-1.007080078125,3.57818603515625,-73.91990231990232,24.739926739926737,-110.95482295482294
42:19.334,0.349609375,0.1435546875,2.005859375,-1.30462646484375,1.06048583984375,0.26702880859375,37.934554334554335,-18.59242979242979,95.66105006105006,-0.21826171875,-1.95947265625,0.02587890625,-3.7384033203125,-0.54168701171875,0.518798828125,54.877655677655675,-63.873992673992674,41.683028083028084,-1.35595703125,1.4794921875,0.04296875,-1.27410888671875,0.6561279296875,1.60980224609375,-69.12185592185592,27.588766788766787,-111.25470085470086
42:20.163,0.365234375,0.146484375,2.0029296875,-1.6632080078125,1.42669677734375,-0.19073486328125,39.433943833943836,-17.54285714285714,96.7106227106227,-0.23291015625,-1.947265625,0.013671875,-3.48663330078125,0.46539306640625,1.59454345703125,53.82808302808303,-63.12429792429792,43.482295482295484,-1.34130859375,1.47802734375,0.05126953125,-1.0528564453125,0.3204345703125,1.73187255859375,-68.97191697191697,28.488400488400487,-111.7045177045177
42:20.991,0.365234375,0.146484375,2.0029296875,-1.495361328125,0.26702880859375,-0.0152587890625,39.883760683760684,-14.843956043956043,96.26080586080586,-0.234375,-1.958984375,0.021484375,-2.96783447265625,-0.396728515625,1.3275146484375,54.427838827838826,-63.27423687423687,43.33235653235653,-1.359375,1.47705078125,0.05078125,-1.07574462890625,0.6103515625,1.220703125,-68.82197802197803,30.137728937728937,-113.35384615384615
42:21.820,0.36376953125,0.15185546875,2.01513671875,-1.495361328125,0.26702880859375,-0.0152587890625,39.883760683760684,-14.843956043956043,96.26080586080586,-0.15283203125,-1.95361328125,0.056640625,-2.8228759765625,11.29150390625,0.640869140625,53.37826617826617,-64.47374847374847,41.533089133089135,-1.359375,1.47705078125,0.05078125,-2.13623046875,-5.3863525390625,7.0953369140625,-70.47130647130646,28.93821733821734,-110.35506715506715
42:22.600,0.35302734375,0.140625,2.02099609375,-0.6561279296875,-0.7171630859375,-0.79345703125,40.63345543345543,-15.593650793650793,96.86056166056166,-0.15283203125,-1.95361328125,0.056640625,-2.8228759765625,11.29150390625,0.640869140625,53.37826617826617,-64.47374847374847,41.533089133089135,-1.2275390625,1.619140625,0.009765625,-2.13623046875,-5.3863525390625,7.0953369140625,-70.47130647130646,28.93821733821734,-110.35506715506715
42:23.380,0.45947265625,0.13916015625,1.99169921875,-1.9378662109375,2.22015380859375,-0.90789794921875,38.83418803418803,-17.692796092796094,97.31037851037851,-0.419921875,-1.91943359375,0.021484375,0.3662109375,0.244140625,0.48828125,54.877655677655675,-64.62368742368741,42.13284493284493,-1.1767578125,1.60400390625,-0.06201171875,-8.32366943359375,2.38800048828125,-0.6256103515625,-64.47374847374847,30.437606837606836,-118.9015873015873
42:24.160,0.501953125,0.1171875,1.96337890625,-2.0751953125,1.007080078125,-0.0762939453125,43.482295482295484,-15.893528693528692,97.61025641025641,-0.20458984375,-1.98291015625,0.048828125,-5.4473876953125,-5.6610107421875,0.58746337890625,54.727716727716725,-64.47374847374847,29.687912087912085,-1.31787109375,1.49951171875,0.11328125,3.89862060546875,-0.79345703125,3.8299560546875,-58.92600732600732,31.487179487179485,-122.65006105006104
42:24.989,0.501953125,0.1171875,1.96337890625,-0.35858154296875,-1.8463134765625,1.3580322265625,42.73260073260073,-17.992673992673993,96.86056166056166,-0.21142578125,-1.9775390625,0.0400390625,-0.8544921875,-0.579833984375,-0.3662109375,53.67814407814408,-64.47374847374847,40.48351648351648,-1.26611328125,1.6201171875,-0.05029296875,4.08935546875,-0.41961669921875,4.57000732421875,-73.47008547008546,25.03980463980464,-104.95726495726495
42:25.769,0.4541015625,0.14013671875,1.984375,-0.35858154296875,-1.8463134765625,1.3580322265625,42.73260073260073,-17.992673992673993,96.86056166056166,-0.21142578125,-1.9775390625,0.0400390625,-1.16729736328125,-4.79888916015625,5.59234619140625,57.12673992673992,-64.92356532356533,41.683028083028084,-1.26611328125,1.6201171875,-0.05029296875,-11.5203857421875,1.60980224609375,0.41961669921875,-62.52454212454212,30.287667887667887,-111.1047619047619
42:26.549,0.4814453125,0.12890625,1.97802734375,-0.4425048828125,-5.94329833984375,0.91552734375,42.43272283272283,-16.943101343101343,99.55946275946276,-0.275390625,-1.9736328125,0.05224609375,-1.16729736328125,-4.79888916015625,5.59234619140625,57.12673992673992,-64.92356532356533,41.683028083028084,-1.28125,1.548828125,0.06396484375,-11.5203857421875,1.60980224609375,0.41961669921875,-62.52454212454212,30.287667887667887,-111.1047619047619
42:27.378,0.46044921875,0.158203125,1.9833984375,-1.495361328125,1.56402587890625,0.23651123046875,42.88253968253968,-16.043467643467643,98.50989010989011,-0.21484375,-1.96923828125,0.0439453125,-5.4931640625,1.65557861328125,0.946044921875,54.727716727716725,-64.47374847374847,42.58266178266178,-1.228515625,1.6005859375,-0.01611328125,-5.77545166015625,2.0904541015625,0.20599365234375,-70.47130647130646,27.13894993894994,-105.85689865689865
42:28.206,0.44921875,0.16455078125,1.984375,-1.52587890625,0.96893310546875,0.0152587890625,43.18241758241758,-14.544078144078144,98.65982905982905,-0.22998046875,-1.95263671875,-0.00634765625,-4.486083984375,2.7008056640625,0.51116943359375,54.727716727716725,-65.52332112332113,41.23321123321123,-1.23681640625,1.58056640625,0.00390625,-1.35040283203125,1.0986328125,1.57928466796875,-66.42295482295482,26.389255189255188,-111.7045177045177
42:29.035,0.44921875,0.16455078125,1.984375,-1.129150390625,1.74713134765625,0.14495849609375,44.53186813186813,-15.593650793650793,98.95970695970695,-0.22216796875,-1.96435546875,0.02392578125,-2.89154052734375,0.5340576171875,0.8087158203125,54.427838827838826,-64.77362637362637,38.084493284493284,-1.23046875,1.59912109375,0.00048828125,-0.5645751953125,0.93841552734375,1.922607421875,-68.22222222222221,27.738705738705736,-107.65616605616606
42:29.815,0.44970703125,0.15869140625,1.99755859375,-1.129150390625,1.74713134765625,0.14495849609375,44.53186813186813,-15.593650793650793,98.95970695970695,-0.23388671875,-1.9609375,0.05712890625,-2.593994140625,0.75531005859375,1.15203857421875,55.32747252747252,-63.873992673992674,40.63345543345543,-1.23046875,1.59912109375,0.00048828125,-0.946044921875,1.190185546875,1.6326904296875,-68.37216117216117,27.588766788766787,-107.806105006105
42:30.595,0.44873046875,0.1591796875,1.99267578125,-1.312255859375,0.396728515625,-0.22125244140625,43.18241758241758,-17.39291819291819,98.21001221001221,-0.23388671875,-1.9609375,0.05712890625,-2.593994140625,0.75531005859375,1.15203857421875,55.32747252747252,-63.873992673992674,40.63345543345543,-1.23095703125,1.5859375,-0.00537109375,-0.946044921875,1.190185546875,1.6326904296875,-68.37216117216117,27.588766788766787,-107.806105006105
42:31.375,0.5107421875,0.15234375,1.9794921875,0.1373291015625,3.875732421875,-0.79345703125,43.63223443223443,-16.043467643467643,97.46031746031746,-0.1572265625,-2.01611328125,-0.14453125,-9.82666015625,12.2528076171875,-4.6844482421875,53.97802197802198,-65.82319902319902,38.38437118437118,-0.9833984375,1.82421875,-0.154296875,5.096435546875,-2.4261474609375,1.9378662109375,-70.02148962148962,26.689133089133087,-109.0056166056166
42:32.155,0.44921875,0.162109375,1.9970703125,-1.7852783203125,4.08172607421875,1.30462646484375,43.18241758241758,-15.593650793650793,98.21001221001221,-0.10498046875,-1.982421875,-0.181640625,-3.18145751953125,4.50897216796875,-2.43377685546875,54.427838827838826,-68.82197802197803,29.987789987789988,-1.19580078125,1.611328125,-0.185546875,-2.471923828125,1.2054443359375,2.4261474609375,-51.87887667887668,34.186080586080585,-117.55213675213675
42:32.935,0.44921875,0.162109375,1.9970703125,-1.7852783203125,4.08172607421875,1.30462646484375,43.63223443223443,-16.793162393162394,97.76019536019535,-0.0986328125,-1.99609375,-0.2060546875,-2.70843505859375,0.57220458984375,-0.518798828125,56.826862026862024,-67.92234432234432,29.088156288156288,-1.189453125,1.61962890625,-0.08837890625,-1.434326171875,0.61798095703125,1.28173828125,-54.427838827838826,32.98656898656898,-111.25470085470086
42:33.715,0.46337890625,0.1689453125,1.99658203125,-1.18255615234375,-1.4495849609375,-1.21307373046875,43.63223443223443,-16.793162393162394,97.76019536019535,-0.0986328125,-1.99609375,-0.2060546875,-1.50299072265625,0.12969970703125,0.6256103515625,55.62735042735043,-69.42173382173382,28.788278388278385,-1.189453125,1.61962890625,-0.08837890625,-1.434326171875,0.61798095703125,1.28173828125,-55.77728937728938,31.936996336996337,-112.3042735042735
42:34.495,0.47216796875,0.15869140625,1.98681640625,-0.93841552734375,1.5411376953125,0.38909912109375,43.18241758241758,-16.64322344322344,98.95970695970695,-0.09814453125,-1.96923828125,-0.15869140625,-1.50299072265625,0.12969970703125,0.6256103515625,55.62735042735043,-69.42173382173382,28.788278388278385,-1.19921875,1.607421875,-0.08984375,-1.28173828125,1.068115234375,1.77764892578125,-55.77728937728938,31.936996336996337,-112.3042735042735
42:35.275,0.47705078125,0.1591796875,1.9873046875,-1.251220703125,1.739501953125,-0.2593994140625,42.43272283272283,-17.692796092796094,97.31037851037851,-0.10302734375,-1.966796875,-0.17822265625,-2.9296875,0.26702880859375,1.47247314453125,55.77728937728938,-69.12185592185592,30.737484737484735,-1.19970703125,1.6083984375,-0.11083984375,-1.251220703125,0.8697509765625,1.47247314453125,-56.227106227106226,31.187301587301587,-111.55457875457876
42:36.153,0.4658203125,0.166015625,1.99169921875,-1.33514404296875,0.70953369140625,-0.0457763671875,42.28278388278388,-17.54285714285714,98.809768009768,-0.10205078125,-1.96240234375,-0.16650390625,-1.89208984375,0.3814697265625,1.3580322265625,56.227106227106226,-68.52210012210011,29.238095238095237,-1.19189453125,1.60693359375,-0.10400390625,-1.15966796875,0.19073486328125,1.64031982421875,-56.227106227106226,31.637118437118435,-112.0043956043956
42:36.933,0.4658203125,0.166015625,1.99169921875,-1.33514404296875,0.70953369140625,-0.0457763671875,42.28278388278388,-16.793162393162394,99.1096459096459,-0.1083984375,-1.96337890625,-0.17236328125,-3.22723388671875,0.67901611328125,1.4495849609375,55.62735042735043,-70.17142857142856,29.088156288156288,-1.1962890625,1.615234375,-0.09375,-0.72479248046875,0.80108642578125,1.5106201171875,-57.72649572649573,31.487179487179485,-111.7045177045177
42:37.713,0.4521484375,0.166015625,1.9912109375,-1.35040283203125,0.26702880859375,-0.0457763671875,42.28278388278388,-16.793162393162394,99.1096459096459,-0.1083984375,-1.96337890625,-0.17236328125,-1.5869140625,-3.12042236328125,1.19781494140625,55.47741147741147,-67.32258852258852,28.93821733821734,-1.1962890625,1.615234375,-0.09375,-0.72479248046875,0.80108642578125,1.5106201171875,-55.77728937728938,30.887423687423688,-113.35384615384615
42:38.493,0.466796875,0.16796875,1.974609375,-1.2664794921875,0.3814697265625,-0.17547607421875,43.33235653235653,-17.093040293040293,98.809768009768,-0.10986328125,-1.95947265625,-0.17333984375,-1.5869140625,-3.12042236328125,1.19781494140625,55.47741147741147,-67.32258852258852,28.93821733821734,-1.201171875,1.61669921875,-0.09814453125,-0.7476806640625,0.52642822265625,1.7852783203125,-55.77728937728938,30.887423687423688,-113.35384615384615
42:39.273,0.46533203125,0.15966796875,1.994140625,-1.2054443359375,0.8392333984375,-0.14495849609375,42.43272283272283,-15.143833943833943,99.55946275946276,-0.09423828125,-1.9716796875,-0.171875,-3.2196044921875,-1.21307373046875,1.22833251953125,53.67814407814408,-68.07228327228327,30.737484737484735,-1.19287109375,1.61669921875,-0.0927734375,-1.16729736328125,0.54168701171875,1.5869140625,-56.826862026862024,30.887423687423688,-112.6041514041514
42:40.053,0.47021484375,0.173828125,2.0029296875,-1.129150390625,1.24359130859375,-0.1678466796875,42.28278388278388,-16.043467643467643,98.50989010989011,-0.10791015625,-1.970703125,-0.1748046875,-3.60870361328125,-0.32806396484375,1.1138916015625,54.27789987789988,-68.97191697191697,29.83785103785104,-1.201171875,1.623046875,-0.09912109375,-0.69427490234375,1.2359619140625,1.67083740234375,-57.57655677655677,30.137728937728937,-113.35384615384615
42:40.881,0.47021484375,0.173828125,2.0029296875,-1.129150390625,1.24359130859375,-0.1678466796875,43.78217338217338,-16.343345543345542,100.0092796092796,-0.14892578125,-2.07666015625,-0.1640625,-4.72259521484375,9.46044921875,1.312255859375,53.82808302808303,-68.97191697191697,30.437606837606836,-1.1845703125,1.62255859375,-0.07568359375,-0.762939453125,-0.38909912109375,2.51007080078125,-56.227106227106226,30.137728937728937,-111.55457875457876
42:41.661,0.51904296875,0.16162109375,1.98974609375,-1.99127197265625,-0.51116943359375,-0.54931640625,43.78217338217338,-16.343345543345542,100.0092796092796,-0.14892578125,-2.07666015625,-0.1640625,-4.72259521484375,9.46044921875,1.312255859375,54.577777777777776,-66.87277167277168,29.83785103785104,-1.1845703125,1.62255859375,-0.07568359375,-0.762939453125,-0.38909912109375,2.51007080078125,-56.377045177045176,31.037362637362637,-111.1047619047619
42:42.442,0.47998046875,0.15966796875,1.97509765625,-1.2359619140625,1.83868408203125,-0.37384033203125,42.43272283272283,-17.692796092796094,98.65982905982905,-0.119140625,-1.9560546875,-0.14697265625,-2.67791748046875,-0.63323974609375,1.5411376953125,54.577777777777776,-66.87277167277168,29.83785103785104,-1.2021484375,1.60205078125,-0.10107421875,-1.12152099609375,0.75531005859375,1.708984375,-56.377045177045176,31.037362637362637,-111.1047619047619
42:43.222,0.4765625,0.166015625,1.9716796875,-1.708984375,2.7313232421875,-0.30517578125,42.88253968253968,-16.793162393162394,98.809768009768,-0.12109375,-1.9677734375,-0.15087890625,-5.60760498046875,0.42724609375,1.35040283203125,55.32747252747252,-68.97191697191697,29.088156288156288,-1.1943359375,1.6171875,-0.0966796875,-1.09100341796875,0.89263916015625,1.89971923828125,-57.72649572649573,30.287667887667887,-113.5037851037851
42:44.001,0.4765625,0.166015625,1.9716796875,-1.1749267578125,1.91497802734375,-0.16021728515625,43.18241758241758,-18.44249084249084,99.25958485958486,-0.13671875,-1.95947265625,-0.1630859375,-2.3345947265625,0.16021728515625,1.31988525390625,52.17875457875458,-67.02271062271062,31.337240537240536,-1.2060546875,1.5947265625,-0.0888671875,-0.99945068359375,0.87738037109375,1.46484375,-59.67570207570208,30.287667887667887,-113.2039072039072
42:44.782,0.4892578125,0.15966796875,1.97802734375,-1.1749267578125,1.91497802734375,-0.16021728515625,43.18241758241758,-18.44249084249084,99.25958485958486,-0.13671875,-1.95947265625,-0.1630859375,-2.63214111328125,0.80108642578125,0.7781982421875,53.37826617826617,-67.77240537240537,29.687912087912085,-1.2060546875,1.5947265625,-0.0888671875,-0.95367431640625,0.93841552734375,1.68609619140625,-60.57533577533577,29.088156288156288,-114.4034188034188
42:45.562,0.48681640625,0.17236328125,1.9853515625,-0.98419189453125,1.2054443359375,-0.06866455078125,41.832967032967034,-14.993894993894994,99.85934065934066,-0.13330078125,-1.95263671875,-0.17626953125,-2.63214111328125,0.80108642578125,0.7781982421875,53.37826617826617,-67.77240537240537,29.687912087912085,-1.20068359375,1.60546875,-0.08837890625,-0.95367431640625,0.93841552734375,1.68609619140625,-60.57533577533577,29.088156288156288,-114.4034188034188
42:46.342,0.49609375,0.16162109375,1.982421875,-1.27410888671875,1.19781494140625,0.06103515625,42.88253968253968,-16.793162393162394,97.76019536019535,-0.130859375,-1.96484375,-0.1728515625,-2.166748046875,-0.23651123046875,0.9765625,53.82808302808303,-66.12307692307692,30.887423687423688,-1.20947265625,1.607421875,-0.08984375,-1.04522705078125,0.74005126953125,1.48773193359375,-59.37582417582417,30.137728937728937,-113.35384615384615
42:47.121,0.4921875,0.16259765625,1.97900390625,-0.98419189453125,0.946044921875,-0.09918212890625,42.13284493284493,-16.64322344322344,98.95970695970695,-0.138671875,-1.9609375,-0.15234375,-4.150390625,0.75531005859375,0.98419189453125,54.727716727716725,-68.07228327228327,30.737484737484735,-1.21923828125,1.5908203125,-0.08642578125,-1.373291015625,1.10626220703125,1.46484375,-58.176312576312576,30.287667887667887,-112.15433455433455
42:47.902,0.4921875,0.16259765625,1.97900390625,-0.98419189453125,0.946044921875,-0.09918212890625,42.58266178266178,-16.793162393162394,97.46031746031746,-0.14208984375,-1.9736328125,-0.1650390625,-2.46429443359375,-0.67138671875,0.80108642578125,53.82808302808303,-67.47252747252747,32.236874236874236,-1.20751953125,1.6162109375,-0.072265625,-1.03759765625,0.78582763671875,1.25885009765625,-59.975579975579976,31.487179487179485,-111.7045177045177
42:48.730,0.49560546875,0.15869140625,1.99072265625,-1.41143798828125,1.068115234375,-0.2288818359375,42.58266178266178,-16.793162393162394,97.46031746031746,-0.14208984375,-1.9736328125,-0.1650390625,-3.08990478515625,0.6561279296875,1.220703125,55.47741147741147,-66.57289377289376,28.93821733821734,-1.20751953125,1.6162109375,-0.072265625,-1.03759765625,0.78582763671875,1.25885009765625,-58.77606837606837,29.088156288156288,-113.05396825396825
42:49.510,0.482421875,0.16650390625,1.9814453125,-1.373291015625,0.84686279296875,-0.35858154296875,41.23321123321123,-17.54285714285714,98.50989010989011,-0.13134765625,-1.970703125,-0.142578125,-3.08990478515625,0.6561279296875,1.220703125,55.47741147741147,-66.57289377289376,28.93821733821734,-1.20263671875,1.607421875,-0.076171875,-1.15966796875,0.946044921875,1.65557861328125,-58.77606837606837,29.088156288156288,-113.05396825396825
42:50.290,0.4970703125,0.166015625,1.9814453125,-1.40380859375,0.92315673828125,-0.35858154296875,43.63223443223443,-16.793162393162394,98.809768009768,-0.13720703125,-1.96484375,-0.15576171875,-3.23486328125,-1.3427734375,1.19781494140625,55.77728937728938,-67.77240537240537,31.037362637362637,-1.2109375,1.59814453125,-0.08984375,-1.06048583984375,0.8087158203125,1.60980224609375,-59.37582417582417,29.83785103785104,-112.6041514041514
42:51.119,0.49462890625,0.1689453125,1.97705078125,-1.06048583984375,1.2969970703125,-0.1220703125,42.73260073260073,-17.992673992673993,96.86056166056166,-0.1328125,-1.94677734375,-0.14111328125,-3.82232666015625,2.1209716796875,0.7781982421875,55.17753357753357,-68.07228327228327,30.737484737484735,-1.22216796875,1.59423828125,-0.07958984375,-0.87738037109375,0.762939453125,1.60980224609375,-60.275457875457874,30.287667887667887,-113.5037851037851
42:51.899,0.49462890625,0.1689453125,1.97705078125,-1.06048583984375,1.2969970703125,-0.1220703125,42.43272283272283,-17.39291819291819,98.65982905982905,-0.13818359375,-1.953125,-0.15771484375,-2.4261474609375,-0.64849853515625,1.27410888671875,54.727716727716725,-66.27301587301586,30.737484737484735,-1.19921875,1.61376953125,-0.05615234375,-1.56402587890625,1.18255615234375,1.8157958984375,-60.72527472527472,30.287667887667887,-113.5037851037851
42:52.777,0.4853515625,0.16259765625,1.9853515625,-1.18255615234375,1.45721435546875,0.0762939453125,42.43272283272283,-17.39291819291819,98.65982905982905,-0.13818359375,-1.953125,-0.15771484375,-2.57110595703125,0.1373291015625,0.86212158203125,52.778510378510376,-67.47252747252747,30.437606837606836,-1.19921875,1.61376953125,-0.05615234375,-1.2054443359375,0.51116943359375,1.70135498046875,-59.975579975579976,29.537973137973136,-113.2039072039072
42:53.557,0.51025390625,0.169921875,1.9814453125,-1.18255615234375,0.51116943359375,-0.1373291015625,42.58266178266178,-17.842735042735043,98.06007326007325,-0.12646484375,-1.95556640625,-0.150390625,-2.57110595703125,0.1373291015625,0.86212158203125,52.778510378510376,-67.47252747252747,30.437606837606836,-1.20703125,1.59521484375,-0.0712890625,-1.2054443359375,0.51116943359375,1.70135498046875,-59.975579975579976,29.537973137973136,-113.2039072039072
42:54.337,0.5078125,0.1640625,1.97216796875,-0.946044921875,0.6866455078125,-0.12969970703125,42.88253968253968,-16.793162393162394,99.85934065934066,-0.1376953125,-1.9658203125,-0.1328125,-2.471923828125,0.25177001953125,1.16729736328125,54.877655677655675,-66.12307692307692,31.487179487179485,-1.216796875,1.5966796875,-0.08837890625,-0.99945068359375,0.762939453125,1.64031982421875,-59.975579975579976,29.987789987789988,-113.803663003663
42:55.117,0.50732421875,0.1669921875,1.982421875,-1.2969970703125,0.5035400390625,-0.00762939453125,42.43272283272283,-17.39291819291819,98.21001221001221,-0.1328125,-1.953125,-0.17333984375,-3.5552978515625,0.335693359375,0.8697509765625,54.877655677655675,-68.67203907203907,30.437606837606836,-1.2197265625,1.59521484375,-0.07470703125,-1.129150390625,1.16729736328125,1.74713134765625,-60.72527472527472,30.737484737484735,-111.4046398046398
42:55.897,0.50732421875,0.1669921875,1.982421875,-1.2969970703125,0.5035400390625,-0.00762939453125,42.88253968253968,-17.842735042735043,97.76019536019535,-0.13818359375,-1.97412109375,-0.14990234375,-2.55584716796875,-1.1749267578125,0.885009765625,53.97802197802198,-68.52210012210011,29.687912087912085,-1.21142578125,1.59716796875,-0.0791015625,-1.04522705078125,1.1749267578125,1.3580322265625,-60.87521367521367,28.638339438339436,-113.35384615384615
42:56.725,0.50341796875,0.16845703125,1.9921875,-1.21307373046875,0.54931640625,-0.2899169921875,42.88253968253968,-17.842735042735043,97.76019536019535,-0.13818359375,-1.97412109375,-0.14990234375,-2.51007080078125,1.09100341796875,0.9765625,54.577777777777776,-67.17264957264958,30.137728937728937,-1.21142578125,1.59716796875,-0.0791015625,-1.04522705078125,1.1749267578125,1.3580322265625,-60.275457875457874,29.537973137973136,-112.75409035409035
42:57.505,0.5078125,0.171875,1.982421875,-1.07574462890625,1.708984375,-0.26702880859375,43.18241758241758,-16.64322344322344,99.55946275946276,-0.134765625,-1.962890625,-0.16748046875,-2.51007080078125,1.09100341796875,0.9765625,54.577777777777776,-67.17264957264958,30.137728937728937,-1.197265625,1.60009765625,-0.0625,-0.5950927734375,1.28173828125,1.8463134765625,-60.275457875457874,29.537973137973136,-112.75409035409035
42:58.334,0.51513671875,0.173828125,1.98095703125,-1.3275146484375,1.62506103515625,-0.05340576171875,42.28278388278388,-17.093040293040293,99.4095238095238,-0.12451171875,-1.9501953125,-0.154296875,-2.5634765625,-0.41961669921875,1.47247314453125,54.27789987789988,-68.97191697191697,30.437606837606836,-1.2109375,1.60107421875,-0.0654296875,-1.57928466796875,0.05340576171875,1.33514404296875,-60.125518925518925,29.388034188034187,-114.7032967032967
42:59.114,0.486328125,0.166015625,1.98681640625,-1.2359619140625,1.64794921875,0.091552734375,43.482295482295484,-17.39291819291819,97.91013431013431,-0.13427734375,-1.9560546875,-0.13134765625,-5.0811767578125,-0.9307861328125,1.93023681640625,53.37826617826617,-66.57289377289376,30.287667887667887,-1.21337890625,1.60400390625,-0.06298828125,-0.84686279296875,1.220703125,1.6021728515625,-60.87521367521367,29.388034188034187,-115.45299145299145
42:59.894,0.486328125,0.166015625,1.98681640625,-1.2359619140625,1.64794921875,0.091552734375,40.63345543345543,-17.692796092796094,98.65982905982905,-0.15625,-1.9775390625,-0.10546875,1.800537109375,-0.6561279296875,1.3580322265625,55.32747252747252,-67.17264957264958,31.936996336996337,-1.21630859375,1.60107421875,-0.06201171875,-0.80108642578125,1.12152099609375,1.6937255859375,-61.17509157509157,30.887423687423688,-112.3042735042735
43:00.674,0.5185546875,0.17822265625,1.9794921875,-1.71661376953125,1.70135498046875,-0.19073486328125,40.63345543345543,-17.692796092796094,98.65982905982905,-0.15625,-1.9775390625,-0.10546875,1.800537109375,-0.6561279296875,1.3580322265625,55.32747252747252,-66.12307692307692,33.73626373626374,-1.21630859375,1.60107421875,-0.06201171875,-0.80108642578125,1.12152099609375,1.6937255859375,-61.924786324786325,30.137728937728937,-114.1035409035409
43:01.454,0.50927734375,0.17333984375,1.97802734375,-1.434326171875,0.8392333984375,0.3204345703125,43.33235653235653,-17.842735042735043,99.85934065934066,-0.1455078125,-1.962890625,-0.078125,-4.49371337890625,0.02288818359375,0.8392333984375,55.32747252747252,-66.12307692307692,33.73626373626374,-1.20458984375,1.60498046875,-0.06591796875,-1.495361328125,0.9002685546875,1.5869140625,-61.924786324786325,30.137728937728937,-114.1035409035409
43:02.234,0.515625,0.1640625,1.97509765625,-1.1138916015625,1.22833251953125,-0.08392333984375,43.482295482295484,-17.39291819291819,97.61025641025641,-0.14892578125,-1.9462890625,-0.1435546875,-3.71551513671875,-0.48065185546875,1.312255859375,54.577777777777776,-67.17264957264958,34.336019536019535,-1.21435546875,1.5947265625,-0.05517578125,-1.16729736328125,0.9307861328125,1.708984375,-62.97435897435897,29.088156288156288,-114.1035409035409
43:03.014,0.515625,0.1640625,1.97509765625,-1.03759765625,0.4119873046875,-0.03814697265625,42.73260073260073,-19.19218559218559,98.95970695970695,-0.1201171875,-1.96240234375,-0.11962890625,-1.0528564453125,-2.79998779296875,1.31988525390625,55.47741147741147,-67.32258852258852,31.787057387057384,-1.21484375,1.58837890625,-0.0625,-0.72479248046875,0.96893310546875,1.76239013671875,-61.47496947496947,27.738705738705736,-113.803663003663
43:03.843,0.53271484375,0.18017578125,1.96875,-1.03759765625,0.4119873046875,-0.03814697265625,42.73260073260073,-19.19218559218559,98.95970695970695,-0.1474609375,-1.96875,-0.1591796875,-1.91497802734375,0.11444091796875,1.39617919921875,54.577777777777776,-66.42295482295482,33.73626373626374,-1.21484375,1.58837890625,-0.0625,-0.8392333984375,0.701904296875,1.5716552734375,-61.47496947496947,30.287667887667887,-112.75409035409035
43:04.623,0.51611328125,0.1708984375,1.9765625,-1.2664794921875,1.06048583984375,-0.14495849609375,43.18241758241758,-16.943101343101343,100.3091575091575,-0.1474609375,-1.96875,-0.1591796875,-1.91497802734375,0.11444091796875,1.39617919921875,54.27789987789988,-67.47252747252747,31.187301587301587,-1.21484375,1.5947265625,-0.0634765625,-0.8392333984375,0.701904296875,1.5716552734375,-61.47496947496947,30.287667887667887,-112.75409035409035
43:05.403,0.5185546875,0.169921875,1.97509765625,-1.30462646484375,0.946044921875,-0.1983642578125,42.58266178266178,-17.093040293040293,98.50989010989011,-0.146484375,-1.9521484375,-0.0712890625,-3.1280517578125,-0.4119873046875,1.21307373046875,54.27789987789988,-67.47252747252747,31.187301587301587,-1.21923828125,1.5986328125,-0.05908203125,-1.27410888671875,0.98419189453125,1.71661376953125,-62.82442002442002,30.287667887667887,-113.5037851037851
43:06.183,0.46728515625,0.1748046875,1.9765625,-1.12152099609375,1.312255859375,-0.0152587890625,43.78217338217338,-17.692796092796094,98.21001221001221,-0.1435546875,-1.95458984375,-0.1630859375,-1.89208984375,-1.220703125,1.373291015625,53.97802197802198,-67.32258852258852,31.037362637362637,-1.21923828125,1.5849609375,-0.0625,-0.8392333984375,0.579833984375,1.4495849609375,-62.52454212454212,29.987789987789988,-113.2039072039072
43:06.963,0.46728515625,0.1748046875,1.9765625,-1.48773193359375,1.4495849609375,-0.25177001953125,43.18241758241758,-18.44249084249084,98.21001221001221,-0.1650390625,-1.99267578125,-0.17529296875,-4.57763671875,2.70843505859375,0.91552734375,54.427838827838826,-66.27301587301586,33.13650793650793,-1.21875,1.59765625,-0.05908203125,-0.86212158203125,0.96893310546875,1.678466796875,-61.624908424908426,28.03858363858364,-114.4034188034188
43:07.743,0.50830078125,0.16552734375,1.98291015625,-1.48773193359375,1.4495849609375,-0.25177001953125,43.18241758241758,-18.44249084249084,98.21001221001221,-0.1650390625,-1.99267578125,-0.17529296875,-2.99072265625,-1.4190673828125,0.5340576171875,53.67814407814408,-65.82319902319902,30.737484737484735,-1.21875,1.59765625,-0.05908203125,-0.86212158203125,0.96893310546875,1.678466796875,-62.52454212454212,29.238095238095237,-112.45421245421245
43:08.572,0.5283203125,0.17626953125,1.9736328125,-1.1444091796875,-0.244140625,-0.1678466796875,43.482295482295484,-15.593650793650793,97.91013431013431,-0.1591796875,-1.95556640625,-0.18359375,-2.99072265625,-1.4190673828125,0.5340576171875,53.67814407814408,-65.82319902319902,30.737484737484735,-1.21728515625,1.599609375,-0.04345703125,-1.129150390625,1.0833740234375,1.82342529296875,-62.52454212454212,29.238095238095237,-112.45421245421245
43:09.352,0.5244140625,0.1748046875,1.98095703125,-1.129150390625,1.556396484375,-0.1373291015625,43.33235653235653,-16.043467643467643,98.809768009768,-0.16455078125,-1.95947265625,-0.17529296875,-3.7384033203125,0.41961669921875,0.9765625,52.928449328449325,-67.32258852258852,30.287667887667887,-1.21044921875,1.59912109375,-0.04345703125,-0.885009765625,0.2899169921875,1.48773193359375,-61.774847374847376,28.93821733821734,-112.75409035409035
43:10.132,0.51953125,0.17578125,1.98095703125,-1.5411376953125,1.7852783203125,-0.0152587890625,43.18241758241758,-16.943101343101343,98.95970695970695,-0.1611328125,-1.9560546875,-0.1748046875,-2.349853515625,0.31280517578125,1.41143798828125,55.62735042735043,-66.87277167277168,30.137728937728937,-1.21435546875,1.5966796875,-0.0458984375,-0.77056884765625,1.19781494140625,1.44195556640625,-61.774847374847376,29.238095238095237,-114.25347985347985
43:10.960,0.51953125,0.17578125,1.98095703125,-1.30462646484375,0.93841552734375,-0.55694580078125,43.482295482295484,-17.39291819291819,99.55946275946276,-0.146484375,-1.9599609375,-0.1826171875,-3.173828125,0.0,0.79345703125,54.577777777777776,-69.42173382173382,29.388034188034187,-1.21533203125,1.59619140625,-0.0419921875,-0.46539306640625,0.96893310546875,1.70135498046875,-62.67448107448107,29.388034188034187,-114.1035409035409
43:11.741,0.5048828125,0.1689453125,1.9755859375,-1.30462646484375,0.93841552734375,-0.55694580078125,43.482295482295484,-17.39291819291819,99.55946275946276,-0.146484375,-1.9599609375,-0.1826171875,-4.150390625,-0.5645751953125,-1.24359130859375,52.628571428571426,-67.77240537240537,29.238095238095237,-1.21533203125,1.59619140625,-0.0419921875,-0.46539306640625,0.96893310546875,1.70135498046875,-62.97435897435897,29.088156288156288,-113.05396825396825
43:12.569,0.52392578125,0.17236328125,1.98974609375,-1.28173828125,-1.01470947265625,-0.25177001953125,42.13284493284493,-16.943101343101343,99.55946275946276,-0.177734375,-1.96923828125,-0.16552734375,-4.150390625,-0.5645751953125,-1.24359130859375,52.628571428571426,-67.77240537240537,29.238095238095237,-1.20068359375,1.6220703125,-0.095703125,2.31170654296875,-1.6021728515625,0.6561279296875,-62.97435897435897,29.088156288156288,-113.05396825396825
43:13.349,0.541015625,0.17919921875,1.9638671875,-1.3427734375,-0.77056884765625,-0.93841552734375,43.33235653235653,-17.842735042735043,97.46031746031746,-0.08984375,-1.9443359375,-0.03857421875,-6.44683837890625,5.279541015625,-3.6773681640625,54.727716727716725,-66.57289377289376,28.93821733821734,-1.22998046875,1.52783203125,-0.07958984375,1.44195556640625,-1.48773193359375,5.08880615234375,-62.67448107448107,30.137728937728937,-114.4034188034188
43:14.178,0.53662109375,0.169921875,1.97314453125,-1.10626220703125,1.312255859375,-0.091552734375,43.78217338217338,-16.943101343101343,98.95970695970695,-0.10791015625,-1.97314453125,-0.1962890625,-2.25067138671875,-0.61798095703125,1.27410888671875,55.47741147741147,-67.77240537240537,34.186080586080585,-1.22216796875,1.5888671875,-0.076171875,-1.434326171875,0.701904296875,1.01470947265625,-61.47496947496947,30.737484737484735,-114.25347985347985
43:14.958,0.53662109375,0.169921875,1.97314453125,-1.47247314453125,3.51715087890625,-0.08392333984375,42.58266178266178,-17.54285714285714,98.06007326007325,-0.1171875,-1.95947265625,-0.16796875,-1.41143798828125,-4.730224609375,2.5482177734375,54.27789987789988,-69.42173382173382,28.03858363858364,-1.25732421875,1.55419921875,0.048828125,-7.415771484375,2.349853515625,-3.8909912109375,-61.17509157509157,29.388034188034187,-111.25470085470086
43:15.738,0.5537109375,0.1796875,1.962890625,-1.47247314453125,3.51715087890625,-0.08392333984375,42.58266178266178,-17.54285714285714,98.06007326007325,-0.1171875,-1.95947265625,-0.16796875,-4.14276123046875,-0.41961669921875,4.547119140625,52.17875457875458,-66.27301587301586,32.08693528693529,-1.25732421875,1.55419921875,0.048828125,-7.415771484375,2.349853515625,-3.8909912109375,-70.77118437118438,26.389255189255188,-106.6065934065934
43:16.518,0.55810546875,0.17626953125,1.970703125,-1.03759765625,-0.1068115234375,-0.48065185546875,42.28278388278388,-19.34212454212454,98.50989010989011,-0.2158203125,-1.9677734375,-0.1376953125,-4.14276123046875,-0.41961669921875,4.547119140625,52.17875457875458,-66.27301587301586,32.08693528693529,-1.30859375,1.52978515625,-0.01611328125,25.3448486328125,-4.14276123046875,15.57159423828125,-70.77118437118438,26.389255189255188,-106.6065934065934
43:17.298,0.49755859375,0.15380859375,1.98779296875,-1.6021728515625,1.983642578125,0.640869140625,43.482295482295484,-17.992673992673993,98.65982905982905,-0.2333984375,-1.9677734375,-0.18212890625,-4.08935546875,-0.244140625,-0.86212158203125,52.628571428571426,-64.02393162393162,37.03492063492063,-1.23095703125,1.59033203125,-0.0068359375,-11.8408203125,1.51824951171875,-2.47955322265625,-65.52332112332113,28.638339438339436,-106.0068376068376
43:18.078,0.52734375,0.162109375,1.9677734375,-1.2359619140625,-0.2593994140625,-0.61798095703125,42.13284493284493,-17.692796092796094,100.3091575091575,-0.185546875,-1.953125,-0.17578125,-2.38037109375,-0.46539306640625,1.4190673828125,52.628571428571426,-67.02271062271062,28.638339438339436,-1.22900390625,1.59033203125,-0.0478515625,-0.70953369140625,0.84686279296875,1.97601318359375,-61.624908424908426,32.98656898656898,-110.5050061050061
43:18.858,0.52734375,0.162109375,1.9677734375,-1.2359619140625,-0.2593994140625,-0.61798095703125,43.78217338217338,-16.64322344322344,98.21001221001221,-0.1806640625,-1.94677734375,-0.16552734375,-2.7008056640625,0.86212158203125,1.0223388671875,52.02881562881563,-66.42295482295482,30.437606837606836,-1.2421875,1.57275390625,-0.033203125,-1.62506103515625,0.7476806640625,1.495361328125,-61.47496947496947,30.737484737484735,-110.35506715506715
43:19.638,0.53173828125,0.16552734375,1.966796875,-1.18255615234375,0.396728515625,-0.28228759765625,43.78217338217338,-16.64322344322344,98.21001221001221,-0.1806640625,-1.94677734375,-0.16552734375,-2.7008056640625,0.86212158203125,1.0223388671875,53.37826617826617,-65.52332112332113,29.987789987789988,-1.2421875,1.57275390625,-0.033203125,-1.62506103515625,0.7476806640625,1.495361328125,-61.47496947496947,30.737484737484735,-110.35506715506715
43:20.418,0.53564453125,0.185546875,1.9853515625,-1.3275146484375,1.4801025390625,-0.1373291015625,43.482295482295484,-17.992673992673993,99.55946275946276,-0.20751953125,-1.9580078125,-0.20068359375,-3.7384033203125,-0.762939453125,1.60980224609375,53.37826617826617,-65.52332112332113,29.987789987789988,-1.251953125,1.580078125,-0.01513671875,-3.57818603515625,1.434326171875,0.244140625,-59.825641025641026,32.386813186813185,-110.5050061050061
43:21.295,0.55859375,0.173828125,1.96484375,-1.10626220703125,0.35858154296875,0.43487548828125,42.88253968253968,-18.59242979242979,99.85934065934066,-0.1279296875,-1.9755859375,-0.1669921875,-6.40869140625,5.92041015625,-2.22015380859375,52.47863247863248,-66.87277167277168,30.137728937728937,-1.1728515625,1.6298828125,-0.15869140625,5.645751953125,-0.4425048828125,7.30133056640625,-61.02515262515262,32.08693528693529,-110.804884004884
43:22.076,0.56884765625,0.15673828125,1.97021484375,-0.58746337890625,0.52642822265625,-0.32806396484375,42.88253968253968,-17.54285714285714,97.76019536019535,0.05517578125,-1.9638671875,-0.3671875,-2.60162353515625,-0.14495849609375,-1.28173828125,54.27789987789988,-68.22222222222221,28.338461538461537,-1.05615234375,1.67529296875,-0.31787109375,-3.0670166015625,1.65557861328125,0.885009765625,-45.13162393162393,36.135286935286935,-114.25347985347985
43:22.856,0.56884765625,0.15673828125,1.97021484375,-0.58746337890625,0.52642822265625,-0.32806396484375,43.63223443223443,-17.842735042735043,99.85934065934066,0.068359375,-1.95751953125,-0.30078125,-2.410888671875,-1.5411376953125,1.739501953125,54.427838827838826,-72.42051282051281,19.791941391941393,-1.06640625,1.69970703125,-0.2919921875,-3.7078857421875,1.38092041015625,0.09918212890625,-32.686691086691084,43.482295482295484,-107.05641025641025
43:23.684,0.5712890625,0.16650390625,1.96484375,-1.21307373046875,2.15911865234375,-0.45013427734375,43.63223443223443,-17.842735042735043,99.85934065934066,0.068359375,-1.95751953125,-0.30078125,-2.410888671875,-1.5411376953125,1.739501953125,56.377045177045176,-72.27057387057387,20.99145299145299,-1.06640625,1.69970703125,-0.2919921875,-3.7078857421875,1.38092041015625,0.09918212890625,-33.28644688644688,41.533089133089135,-106.6065934065934
43:24.513,0.56201171875,0.16796875,1.96630859375,-1.13677978515625,1.556396484375,-0.0457763671875,43.93211233211233,-19.34212454212454,98.809768009768,0.04150390625,-1.93701171875,-0.29345703125,-3.875732421875,0.20599365234375,1.4495849609375,56.377045177045176,-72.27057387057387,20.99145299145299,-1.04541015625,1.67529296875,-0.29345703125,-0.70953369140625,0.335693359375,1.52587890625,-33.28644688644688,41.533089133089135,-106.6065934065934
43:25.342,0.56787109375,0.1669921875,1.95556640625,-1.15966796875,1.7852783203125,0.0152587890625,44.38192918192918,-17.842735042735043,99.1096459096459,0.03271484375,-1.9609375,-0.275390625,-1.76239013671875,-1.9989013671875,1.73187255859375,55.32747252747252,-74.06984126984126,23.54041514041514,-1.078125,1.67333984375,-0.27783203125,-1.03759765625,0.6103515625,1.7242431640625,-35.835409035409036,43.03247863247863,-106.9064713064713
43:26.170,0.537109375,0.162109375,1.96923828125,-1.04522705078125,2.2430419921875,-0.40435791015625,43.33235653235653,-18.29255189255189,99.4095238095238,0.001953125,-1.96826171875,-0.2373046875,2.12860107421875,-11.00921630859375,3.1280517578125,55.32747252747252,-71.52087912087912,23.09059829059829,-1.1435546875,1.64453125,-0.166015625,-7.19451904296875,2.11334228515625,-1.4801025390625,-37.934554334554335,40.48351648351648,-107.95604395604396
43:27.048,0.49560546875,0.158203125,1.98095703125,-1.77764892578125,-1.617431640625,-1.007080078125,43.63223443223443,-18.59242979242979,97.46031746031746,-0.1533203125,-1.9775390625,-0.205078125,3.7689208984375,-5.5694580078125,6.8206787109375,56.227106227106226,-71.37094017094017,26.389255189255188,-1.2197265625,1.55908203125,-0.05078125,6.103515625,0.823974609375,5.7525634765625,-47.83052503052503,35.23565323565323,-113.05396825396825
43:27.828,0.49560546875,0.158203125,1.98095703125,-1.77764892578125,-1.617431640625,-1.007080078125,43.63223443223443,-18.59242979242979,97.46031746031746,-0.09912109375,-1.97900390625,-0.18310546875,-2.34222412109375,-2.02178955078125,2.63214111328125,54.27789987789988,-68.67203907203907,30.137728937728937,-1.171875,1.62890625,-0.08642578125,-1.9073486328125,-0.4425048828125,1.7547607421875,-60.125518925518925,31.637118437118435,-110.5050061050061
43:28.755,0.54638671875,0.17431640625,1.97021484375,-1.46484375,2.29644775390625,-0.32806396484375,42.43272283272283,-16.343345543345542,100.0092796092796,-0.09912109375,-1.97900390625,-0.18310546875,-2.8076171875,3.07464599609375,1.53350830078125,56.227106227106226,-67.32258852258852,30.287667887667887,-1.171875,1.62890625,-0.08642578125,-1.9073486328125,-0.4425048828125,1.7547607421875,-54.877655677655675,33.28644688644688,-110.804884004884
43:29.632,0.533203125,0.16650390625,1.96728515625,-1.67083740234375,1.41143798828125,-0.1983642578125,44.53186813186813,-16.943101343101343,98.21001221001221,-0.15283203125,-1.93603515625,-0.1552734375,-2.8076171875,3.07464599609375,1.53350830078125,54.577777777777776,-67.92234432234432,31.187301587301587,-1.1796875,1.61962890625,-0.09423828125,-2.38037109375,1.59454345703125,0.38909912109375,-54.877655677655675,33.28644688644688,-110.804884004884
43:30.461,0.47314453125,0.1806640625,1.97412109375,-1.51824951171875,1.70135498046875,0.96893310546875,42.13284493284493,-17.692796092796094,97.91013431013431,-0.16796875,-1.87060546875,-0.12548828125,-8.09478759765625,4.2877197265625,1.3427734375,54.577777777777776,-67.92234432234432,31.187301587301587,-1.17578125,1.61083984375,-0.123046875,-2.8228759765625,1.54876708984375,0.396728515625,-52.928449328449325,32.686691086691084,-109.15555555555555
43:31.338,0.56005859375,0.171875,1.970703125,-1.30462646484375,0.57220458984375,-0.28228759765625,43.33235653235653,-17.093040293040293,99.1096459096459,-0.119140625,-1.9716796875,-0.17822265625,-1.94549560546875,1.40380859375,1.47247314453125,55.77728937728938,-69.12185592185592,28.188522588522588,-1.173828125,1.63525390625,-0.09033203125,-0.90789794921875,0.91552734375,1.68609619140625,-55.32747252747252,34.635897435897434,-111.4046398046398
43:32.216,0.55517578125,0.17138671875,1.95849609375,-1.47247314453125,0.1220703125,-0.2288818359375,43.482295482295484,-19.49206349206349,98.65982905982905,-0.11962890625,-1.95947265625,-0.21826171875,-2.4566650390625,0.732421875,0.5950927734375,54.877655677655675,-67.17264957264958,28.03858363858364,-1.1865234375,1.6064453125,-0.0966796875,-0.95367431640625,0.7171630859375,1.3885498046875,-55.62735042735043,32.08693528693529,-110.804884004884
43:32.996,0.55517578125,0.17138671875,1.95849609375,-0.87738037109375,1.220703125,0.0,43.18241758241758,-19.19218559218559,100.3091575091575,-0.08740234375,-1.95849609375,-0.21875,-1.93023681640625,1.7852783203125,0.7171630859375,54.427838827838826,-68.52210012210011,26.389255189255188,-1.1826171875,1.61962890625,-0.119140625,-3.44085693359375,1.800537109375,0.0,-54.577777777777776,34.336019536019535,-110.05518925518925
43:33.824,0.5498046875,0.17578125,1.96875,-0.87738037109375,1.220703125,0.0,43.18241758241758,-19.19218559218559,100.3091575091575,-0.087890625,-1.96337890625,-0.220703125,-3.631591796875,-0.20599365234375,1.03759765625,55.77728937728938,-68.07228327228327,29.687912087912085,-1.1826171875,1.61962890625,-0.119140625,-1.06048583984375,1.21307373046875,1.73187255859375,-53.67814407814408,34.78583638583638,-109.15555555555555
43:34.604,0.55517578125,0.1748046875,1.95361328125,-1.40380859375,0.9613037109375,-0.18310546875,43.18241758241758,-19.791941391941393,98.21001221001221,-0.087890625,-1.96337890625,-0.220703125,-3.631591796875,-0.20599365234375,1.03759765625,55.77728937728938,-68.07228327228327,29.687912087912085,-1.19287109375,1.6142578125,-0.103515625,-1.06048583984375,1.21307373046875,1.73187255859375,-53.67814407814408,34.78583638583638,-109.15555555555555
43:35.385,0.5576171875,0.17236328125,1.96826171875,-1.42669677734375,0.63323974609375,-0.3204345703125,43.63223443223443,-18.892307692307693,97.01050061050061,-0.08935546875,-1.9716796875,-0.19873046875,-0.95367431640625,-1.53350830078125,1.3427734375,55.32747252747252,-66.87277167277168,27.738705738705736,-1.18603515625,1.60791015625,-0.09912109375,-1.0223388671875,1.22833251953125,1.79290771484375,-52.928449328449325,32.98656898656898,-110.5050061050061
43:36.164,0.5517578125,0.1767578125,1.9619140625,-2.3345947265625,2.60162353515625,-1.3885498046875,43.18241758241758,-18.44249084249084,100.0092796092796,-0.123046875,-2.03173828125,-0.126953125,-8.758544921875,8.62884521484375,1.0833740234375,53.97802197802198,-68.82197802197803,28.638339438339436,-1.234375,1.58154296875,-0.17919921875,3.65447998046875,1.80816650390625,0.213623046875,-52.928449328449325,33.43638583638584,-109.9052503052503
43:36.944,0.5517578125,0.1767578125,1.9619140625,-2.3345947265625,2.60162353515625,-1.3885498046875,43.78217338217338,-17.992673992673993,98.21001221001221,-0.1015625,-1.953125,-0.173828125,-2.349853515625,-0.8544921875,1.4495849609375,54.27789987789988,-65.67326007326007,31.487179487179485,-1.21923828125,1.60107421875,-0.0986328125,-2.1514892578125,-4.64630126953125,2.4261474609375,-52.32869352869353,34.336019536019535,-103.75775335775336
43:37.724,0.5537109375,0.171875,1.962890625,-1.04522705078125,1.312255859375,-0.152587890625,43.78217338217338,-17.992673992673993,98.21001221001221,-0.1015625,-1.953125,-0.173828125,-3.082275390625,0.00762939453125,0.84686279296875,55.62735042735043,-67.47252747252747,28.788278388278385,-1.21923828125,1.60107421875,-0.0986328125,-2.1514892578125,-4.64630126953125,2.4261474609375,-51.279120879120875,32.08693528693529,-104.05763125763126
43:38.553,0.54833984375,0.16796875,1.9638671875,-1.373291015625,0.7476806640625,-0.1373291015625,42.13284493284493,-17.39291819291819,98.65982905982905,-0.10107421875,-1.966796875,-0.18994140625,-3.082275390625,0.00762939453125,0.84686279296875,55.62735042735043,-67.47252747252747,28.788278388278385,-1.2041015625,1.619140625,-0.08837890625,-1.2664794921875,-0.98419189453125,2.29644775390625,-51.279120879120875,32.08693528693529,-104.05763125763126
43:39.333,0.5458984375,0.166015625,1.96337890625,-0.95367431640625,1.16729736328125,0.16021728515625,41.683028083028084,-17.39291819291819,100.3091575091575,-0.10498046875,-1.95947265625,-0.208984375,-2.9754638671875,-0.49591064453125,0.98419189453125,54.427838827838826,-67.02271062271062,28.93821733821734,-1.20947265625,1.59716796875,-0.10302734375,-1.190185546875,0.38909912109375,1.22833251953125,-53.228327228327224,34.78583638583638,-107.806105006105
43:40.113,0.55078125,0.17138671875,1.95849609375,-0.8544921875,1.0986328125,-0.1068115234375,42.43272283272283,-17.39291819291819,98.65982905982905,-0.10205078125,-1.94873046875,-0.216796875,-2.3651123046875,-3.48663330078125,0.43487548828125,55.17753357753357,-68.07228327228327,28.188522588522588,-1.20458984375,1.6044921875,-0.09130859375,-1.13677978515625,0.98419189453125,1.36566162109375,-51.87887667887668,34.186080586080585,-108.85567765567765
43:40.893,0.55078125,0.17138671875,1.95849609375,-0.8544921875,1.0986328125,-0.1068115234375,42.73260073260073,-17.692796092796094,98.65982905982905,-0.09423828125,-1.96923828125,-0.17919921875,-4.02069091796875,2.532958984375,0.244140625,55.32747252747252,-68.22222222222221,28.788278388278385,-1.220703125,1.59423828125,-0.08935546875,-1.0833740234375,0.8392333984375,1.54876708984375,-53.228327228327224,33.73626373626374,-107.05641025641025
43:41.722,0.56396484375,0.17236328125,1.95947265625,-1.2359619140625,0.05340576171875,0.02288818359375,42.73260073260073,-17.692796092796094,98.65982905982905,-0.09423828125,-1.96923828125,-0.17919921875,-3.30352783203125,-0.732421875,1.12152099609375,56.377045177045176,-66.87277167277168,28.338461538461537,-1.220703125,1.59423828125,-0.08935546875,-1.0833740234375,0.8392333984375,1.54876708984375,-53.52820512820512,33.58632478632479,-109.0056166056166
43:42.551,0.55615234375,0.16845703125,1.97265625,-1.1749267578125,0.5950927734375,-0.1678466796875,43.93211233211233,-19.64200244200244,97.01050061050061,-0.08935546875,-1.95654296875,-0.2060546875,-3.30352783203125,-0.732421875,1.12152099609375,56.377045177045176,-66.87277167277168,28.338461538461537,-1.21044921875,1.61474609375,-0.0888671875,-0.64849853515625,0.09918212890625,1.51824951171875,-53.52820512820512,33.58632478632479,-109.0056166056166
43:43.331,0.5712890625,0.1669921875,1.9697265625,-1.1749267578125,1.4801025390625,-0.7171630859375,43.18241758241758,-19.19218559218559,98.21001221001221,-0.1103515625,-1.9677734375,-0.1533203125,-1.59454345703125,-5.04302978515625,3.07464599609375,56.526984126984125,-68.07228327228327,29.987789987789988,-1.19140625,1.59912109375,-0.07177734375,-3.33404541015625,1.922607421875,-1.33514404296875,-52.778510378510376,34.336019536019535,-109.30549450549451
43:44.111,0.5302734375,0.169921875,1.955078125,-1.2359619140625,2.32696533203125,0.09918212890625,42.73260073260073,-18.742368742368743,98.21001221001221,-0.14208984375,-1.95068359375,-0.048828125,-1.068115234375,-9.28497314453125,0.63323974609375,54.727716727716725,-67.77240537240537,31.037362637362637,-1.42236328125,1.4169921875,0.0419921875,-16.0064697265625,-0.23651123046875,-5.06591796875,-53.52820512820512,36.135286935286935,-109.30549450549451
43:44.939,0.5302734375,0.169921875,1.955078125,-1.2359619140625,2.32696533203125,0.09918212890625,42.88253968253968,-18.59242979242979,98.50989010989011,-0.2060546875,-1.9755859375,-0.0947265625,-2.7313232421875,2.61688232421875,1.33514404296875,54.427838827838826,-67.02271062271062,40.93333333333333,-1.3779296875,1.46728515625,-0.01025390625,-0.38909912109375,2.76947021484375,0.61798095703125,-64.62368742368741,32.08693528693529,-104.807326007326
43:45.719,0.47705078125,0.17724609375,1.9873046875,-2.1209716796875,-1.13677978515625,0.20599365234375,42.88253968253968,-18.59242979242979,98.50989010989011,-0.2060546875,-1.9755859375,-0.0947265625,-5.80596923828125,-0.701904296875,1.3275146484375,53.52820512820512,-64.62368742368741,41.683028083028084,-1.3779296875,1.46728515625,-0.01025390625,-1.06048583984375,-0.1373291015625,1.861572265625,-53.228327228327224,39.883760683760684,-99.4095238095238
43:46.548,0.701171875,0.1748046875,1.95654296875,-0.48828125,2.72369384765625,0.23651123046875,42.73260073260073,-18.742368742368743,98.65982905982905,-0.18896484375,-1.947265625,-0.072265625,-5.80596923828125,-0.701904296875,1.3275146484375,53.52820512820512,-64.62368742368741,41.683028083028084,-1.39111328125,1.4189453125,-0.013671875,-1.06048583984375,-0.1373291015625,1.861572265625,-53.228327228327224,39.883760683760684,-99.4095238095238
43:47.328,0.3857421875,0.13671875,2.00048828125,-3.0975341796875,-5.1116943359375,-0.54168701171875,43.33235653235653,-18.29255189255189,99.1096459096459,-0.25244140625,-1.9443359375,-0.14306640625,-1.41143798828125,28.35845947265625,3.173828125,53.52820512820512,-64.62368742368741,43.18241758241758,-1.318359375,1.498046875,-0.14892578125,6.76727294921875,1.25885009765625,8.1787109375,-46.48107448107448,42.13284493284493,-96.56068376068376
43:48.109,0.49609375,0.17236328125,1.9990234375,-0.6561279296875,0.0152587890625,-0.16021728515625,42.58266178266178,-16.49328449328449,98.06007326007325,-0.0615234375,-1.95263671875,-0.18603515625,-2.25067138671875,-2.105712890625,1.65557861328125,52.628571428571426,-64.77362637362637,36.58510378510378,-1.33056640625,1.46875,-0.158203125,-1.10626220703125,0.61798095703125,1.70135498046875,-34.036141636141636,43.78217338217338,-88.46398046398046
43:48.937,0.49609375,0.17236328125,1.9990234375,-0.6561279296875,0.0152587890625,-0.16021728515625,45.58144078144078,-17.39291819291819,97.91013431013431,-0.09326171875,-1.94970703125,-0.1796875,-3.47137451171875,-0.41961669921875,0.91552734375,53.67814407814408,-67.77240537240537,30.287667887667887,-1.3486328125,1.47314453125,-0.16064453125,-0.72479248046875,1.07574462890625,1.6326904296875,-32.386813186813185,43.482295482295484,-87.56434676434677
43:49.718,0.5146484375,0.17138671875,1.9853515625,-0.98419189453125,1.2054443359375,0.11444091796875,45.58144078144078,-17.39291819291819,97.91013431013431,-0.09326171875,-1.94970703125,-0.1796875,-3.0517578125,-0.8087158203125,0.762939453125,54.427838827838826,-67.32258852258852,30.737484737484735,-1.3486328125,1.47314453125,-0.16064453125,-1.068115234375,0.92315673828125,1.678466796875,-30.737484737484735,43.78217338217338,-88.0141636141636
43:50.545,0.5263671875,0.1728515625,1.9794921875,-1.15966796875,1.57928466796875,-0.2593994140625,43.18241758241758,-17.692796092796094,98.65982905982905,-0.09814453125,-1.96630859375,-0.1962890625,-3.0517578125,-0.8087158203125,0.762939453125,54.427838827838826,-67.32258852258852,30.737484737484735,-1.3359375,1.4658203125,-0.14599609375,-1.068115234375,0.92315673828125,1.678466796875,-30.737484737484735,43.78217338217338,-88.0141636141636
43:51.325,0.5283203125,0.1767578125,1.9775390625,-1.15966796875,1.3427734375,-0.25177001953125,42.43272283272283,-17.992673992673993,99.25958485958486,-0.10546875,-1.9716796875,-0.17724609375,-2.17437744140625,-0.12969970703125,1.068115234375,55.77728937728938,-68.07228327228327,28.93821733821734,-1.3447265625,1.47265625,-0.15380859375,-1.0986328125,1.09100341796875,1.8463134765625,-34.485958485958484,44.98168498168498,-89.96336996336996
43:52.106,0.64599609375,0.21728515625,1.9580078125,-1.25885009765625,3.05938720703125,1.27410888671875,43.18241758241758,-17.992673992673993,98.95970695970695,0.04541015625,-1.90869140625,-0.18994140625,-3.84521484375,-3.63922119140625,6.01959228515625,54.427838827838826,-68.82197802197803,29.987789987789988,-1.31591796875,1.53271484375,-0.07666015625,-15.6402587890625,1.64031982421875,0.5035400390625,-32.686691086691084,44.23199023199023,-88.16410256410256
43:52.934,0.64599609375,0.21728515625,1.9580078125,-1.25885009765625,3.05938720703125,1.27410888671875,44.83174603174603,-17.692796092796094,98.95970695970695,-0.2109375,-1.96533203125,-0.16943359375,-2.8839111328125,0.05340576171875,1.068115234375,54.577777777777776,-67.47252747252747,30.437606837606836,-1.22509765625,1.60888671875,0.01220703125,-1.190185546875,8.24737548828125,-7.42340087890625,-47.53064713064713,38.53431013431013,-102.85811965811965
43:53.714,0.52490234375,0.17919921875,1.97119140625,-1.45721435546875,-0.0457763671875,0.23651123046875,44.83174603174603,-17.692796092796094,98.95970695970695,-0.2109375,-1.96533203125,-0.16943359375,-3.0670166015625,-0.02288818359375,0.78582763671875,52.778510378510376,-66.42295482295482,29.388034188034187,-1.22509765625,1.60888671875,0.01220703125,-1.190185546875,8.24737548828125,-7.42340087890625,-42.58266178266178,41.23321123321123,-98.21001221001221
43:54.495,0.541015625,0.1689453125,1.97119140625,-1.48773193359375,0.89263916015625,-0.1220703125,43.78217338217338,-17.39291819291819,98.21001221001221,-0.13232421875,-1.96533203125,-0.203125,-3.0670166015625,-0.02288818359375,0.78582763671875,52.778510378510376,-66.42295482295482,29.388034188034187,-1.349609375,1.46923828125,-0.13427734375,-1.10626220703125,0.49591064453125,1.70135498046875,-42.58266178266178,41.23321123321123,-98.21001221001221
43:55.275,0.58154296875,0.17138671875,1.9697265625,-1.0986328125,1.2664794921875,-0.152587890625,43.93211233211233,-18.892307692307693,98.50989010989011,-0.13818359375,-1.974609375,-0.1845703125,-4.852294921875,0.274658203125,1.67083740234375,53.82808302808303,-67.92234432234432,32.236874236874236,-1.3544921875,1.47021484375,-0.1328125,-1.22833251953125,0.8697509765625,1.4190673828125,-34.036141636141636,42.58266178266178,-89.81343101343101
43:56.054,0.54931640625,0.166015625,1.96142578125,-1.31988525390625,1.15203857421875,0.091552734375,43.18241758241758,-18.742368742368743,97.91013431013431,-0.14013671875,-1.97216796875,-0.1572265625,-0.8697509765625,0.152587890625,0.43487548828125,53.82808302808303,-66.42295482295482,29.83785103785104,-1.35400390625,1.474609375,-0.142578125,-1.15203857421875,1.1749267578125,1.65557861328125,-33.73626373626374,42.43272283272283,-88.91379731379732
43:56.835,0.54931640625,0.166015625,1.96142578125,-1.31988525390625,1.15203857421875,0.091552734375,43.18241758241758,-18.742368742368743,97.91013431013431,-0.1328125,-1.96337890625,-0.16552734375,-3.57818603515625,0.35858154296875,1.0528564453125,55.77728937728938,-67.32258852258852,31.787057387057384,-1.35400390625,1.474609375,-0.142578125,-1.06048583984375,0.3814697265625,1.67083740234375,-34.036141636141636,42.28278388278388,-88.76385836385836
43:57.663,0.5595703125,0.173828125,1.9794921875,-1.31988525390625,0.9613037109375,-0.0762939453125,43.63223443223443,-16.793162393162394,100.15921855921856,-0.1328125,-1.96337890625,-0.16552734375,-3.57818603515625,0.35858154296875,1.0528564453125,54.877655677655675,-69.42173382173382,30.437606837606836,-1.337890625,1.4775390625,-0.12109375,-1.06048583984375,0.3814697265625,1.67083740234375,-37.18485958485958,42.58266178266178,-89.81343101343101
43:58.443,0.53466796875,0.177734375,1.9658203125,-1.251220703125,-0.03814697265625,-0.0762939453125,42.58266178266178,-17.54285714285714,98.06007326007325,-0.15283203125,-1.96240234375,-0.1376953125,-2.6702880859375,-0.3814697265625,0.95367431640625,54.877655677655675,-69.42173382173382,30.437606837606836,-1.34521484375,1.46630859375,-0.1181640625,-0.9307861328125,0.83160400390625,1.62506103515625,-37.18485958485958,42.58266178266178,-89.81343101343101
43:59.223,0.5595703125,0.177734375,1.97119140625,-1.24359130859375,1.007080078125,-0.152587890625,42.58266178266178,-18.59242979242979,99.1096459096459,-0.146484375,-1.9658203125,-0.16748046875,-3.91387939453125,0.6256103515625,0.640869140625,52.928449328449325,-66.57289377289376,29.987789987789988,-1.35302734375,1.47265625,-0.11962890625,-1.007080078125,0.98419189453125,1.556396484375,-35.08571428571428,44.08205128205128,-86.96459096459097
44:00.003,0.5595703125,0.177734375,1.97119140625,-1.190185546875,1.07574462890625,-0.22125244140625,43.18241758241758,-18.742368742368743,98.21001221001221,-0.1513671875,-1.958984375,-0.1845703125,-3.44085693359375,-0.2899169921875,1.01470947265625,55.32747252747252,-67.47252747252747,30.887423687423688,-1.35302734375,1.4677734375,-0.11962890625,-1.0223388671875,1.007080078125,1.76239013671875,-35.38559218559219,43.78217338217338,-88.0141636141636
44:00.784,0.5576171875,0.17578125,1.9599609375,-1.190185546875,1.07574462890625,-0.22125244140625,43.18241758241758,-18.742368742368743,98.21001221001221,-0.1513671875,-1.958984375,-0.1845703125,-3.4637451171875,-0.43487548828125,1.129150390625,54.577777777777776,-66.87277167277168,30.437606837606836,-1.35302734375,1.4677734375,-0.11962890625,-0.8697509765625,1.220703125,1.44195556640625,-34.635897435897434,43.33235653235653,-87.41440781440781
44:01.563,0.56201171875,0.18115234375,1.97119140625,-1.16729736328125,1.3580322265625,0.08392333984375,42.73260073260073,-17.39291819291819,98.95970695970695,-0.14892578125,-1.95458984375,-0.13623046875,-3.4637451171875,-0.43487548828125,1.129150390625,54.577777777777776,-66.87277167277168,30.437606837606836,-1.35791015625,1.47021484375,-0.126953125,-0.8697509765625,1.220703125,1.44195556640625,-34.635897435897434,43.33235653235653,-87.41440781440781
44:02.343,0.560546875,0.17578125,1.9677734375,-1.15966796875,1.6326904296875,-0.0762939453125,42.28278388278388,-19.64200244200244,98.06007326007325,-0.1376953125,-1.95458984375,-0.1728515625,-2.8076171875,0.74005126953125,0.8392333984375,54.577777777777776,-64.17387057387057,32.536752136752135,-1.353515625,1.47509765625,-0.12109375,-0.9765625,0.79345703125,1.2359619140625,-34.93577533577533,44.23199023199023,-88.16410256410256
44:03.123,0.5615234375,0.1787109375,1.953125,-1.21307373046875,1.5411376953125,0.12969970703125,42.13284493284493,-18.44249084249084,100.0092796092796,-0.1455078125,-1.96142578125,-0.16650390625,-2.89154052734375,-0.4119873046875,1.03759765625,53.97802197802198,-67.02271062271062,31.337240537240536,-1.3603515625,1.46923828125,-0.1240234375,-1.15203857421875,1.190185546875,1.65557861328125,-35.835409035409036,43.33235653235653,-86.66471306471306
44:03.903,0.5615234375,0.1787109375,1.953125,-1.21307373046875,1.5411376953125,0.12969970703125,43.482295482295484,-18.742368742368743,97.91013431013431,-0.1533203125,-1.94873046875,-0.17431640625,-3.22723388671875,0.03814697265625,1.06048583984375,54.577777777777776,-67.92234432234432,30.887423687423688,-1.3525390625,1.46826171875,-0.12255859375,-1.068115234375,0.80108642578125,1.67083740234375,-36.135286935286935,45.13162393162393,-88.46398046398046
44:04.683,0.56591796875,0.17724609375,1.962890625,-1.28173828125,0.96893310546875,-0.0762939453125,43.482295482295484,-18.742368742368743,97.91013431013431,-0.1533203125,-1.94873046875,-0.17431640625,-3.22723388671875,0.03814697265625,1.06048583984375,54.727716727716725,-67.77240537240537,29.687912087912085,-1.3525390625,1.46826171875,-0.12255859375,-1.068115234375,0.80108642578125,1.67083740234375,-36.73504273504273,41.38315018315018,-89.21367521367522
44:05.463,0.5927734375,0.1796875,1.96728515625,-1.1138916015625,-5.1422119140625,-1.38092041015625,41.832967032967034,-17.54285714285714,99.1096459096459,-0.123046875,-1.98095703125,-0.16357421875,2.11334228515625,-1.129150390625,1.5106201171875,54.727716727716725,-67.77240537240537,29.687912087912085,-1.357421875,1.47802734375,-0.0498046875,4.67681884765625,-2.51007080078125,-1.73187255859375,-36.73504273504273,41.38315018315018,-89.21367521367522
44:06.243,0.6240234375,0.17333984375,1.93408203125,-4.486083984375,-1.9683837890625,-1.03759765625,43.78217338217338,-19.19218559218559,98.65982905982905,-0.12451171875,-1.9814453125,-0.19140625,2.6702880859375,-4.87518310546875,2.38800048828125,55.47741147741147,-67.77240537240537,33.13650793650793,-1.44091796875,1.37158203125,-0.05908203125,-6.7291259765625,-0.34332275390625,-1.6632080078125,-34.485958485958484,42.88253968253968,-85.76507936507936
44:07.023,0.6240234375,0.17333984375,1.93408203125,-1.068115234375,5.2490234375,-0.3204345703125,44.68180708180708,-19.941880341880342,96.7106227106227,-0.15869140625,-1.9658203125,-0.16455078125,-3.4637451171875,0.96893310546875,0.732421875,53.82808302808303,-65.37338217338217,40.33357753357753,-1.44287109375,1.37890625,-0.03466796875,-2.58636474609375,1.40380859375,1.04522705078125,-39.583882783882785,41.683028083028084,-90.71306471306471
44:07.804,0.58447265625,0.17236328125,1.9716796875,-1.068115234375,5.2490234375,-0.3204345703125,44.68180708180708,-19.941880341880342,96.7106227106227,-0.1533203125,-1.9833984375,-0.1279296875,-1.91497802734375,0.46539306640625,0.1068115234375,53.37826617826617,-64.77362637362637,41.23321123321123,-1.42724609375,1.40087890625,-0.0244140625,-1.3427734375,0.5035400390625,1.07574462890625,-41.08327228327228,43.482295482295484,-91.01294261294261
44:08.632,0.3388671875,0.14111328125,1.9609375,-3.66973876953125,13.7176513671875,1.0986328125,43.93211233211233,-17.842735042735043,99.85934065934066,-0.1533203125,-1.9833984375,-0.1279296875,-1.91497802734375,0.46539306640625,0.1068115234375,53.37826617826617,-62.97435897435897,42.28278388278388,-1.42724609375,1.40087890625,-0.0244140625,-1.3427734375,0.5035400390625,1.07574462890625,-41.08327228327228,43.482295482295484,-91.01294261294261
44:09.412,0.49365234375,0.1865234375,1.99609375,-6.35528564453125,4.058837890625,0.2593994140625,42.13284493284493,-17.692796092796094,95.2112332112332,-0.16162109375,-1.95703125,-0.13525390625,-1.7547607421875,0.49591064453125,0.6103515625,53.37826617826617,-62.97435897435897,42.28278388278388,-1.4287109375,1.39697265625,-0.033203125,-0.95367431640625,1.07574462890625,1.77764892578125,-42.88253968253968,43.18241758241758,-93.41196581196581
44:10.192,0.5009765625,0.193359375,1.99951171875,-1.80816650390625,0.06103515625,-0.46539306640625,42.43272283272283,-18.44249084249084,97.91013431013431,-0.19775390625,-1.9619140625,-0.1005859375,0.640869140625,-0.1678466796875,1.4495849609375,53.52820512820512,-64.17387057387057,42.43272283272283,-1.43115234375,1.39404296875,-0.029296875,-0.64849853515625,0.89263916015625,1.82342529296875,-41.683028083028084,41.38315018315018,-93.11208791208792
44:10.972,0.5009765625,0.193359375,1.99951171875,-1.6021728515625,4.96673583984375,-2.288818359375,42.13284493284493,-16.943101343101343,99.25958485958486,-0.2158203125,-1.96337890625,0.11181640625,6.6375732421875,0.14495849609375,2.8839111328125,52.02881562881563,-62.37460317460317,42.73260073260073,-1.42333984375,1.4091796875,-0.0390625,-1.18255615234375,1.22833251953125,1.39617919921875,-40.48351648351648,43.33235653235653,-89.36361416361416
44:11.752,0.38916015625,0.1884765625,2.0224609375,-1.6021728515625,4.96673583984375,-2.288818359375,42.13284493284493,-16.943101343101343,99.25958485958486,-0.2158203125,-1.96337890625,0.11181640625,-4.8675537109375,1.2054443359375,0.5035400390625,53.37826617826617,-63.27423687423687,47.53064713064713,-1.42333984375,1.4091796875,-0.0390625,-1.18255615234375,1.22833251953125,1.39617919921875,-41.683028083028084,42.88253968253968,-88.16410256410256
44:12.532,0.41357421875,0.16259765625,1.9833984375,-2.3040771484375,-3.45611572265625,1.3580322265625,40.33357753357753,-16.64322344322344,96.86056166056166,-0.22314453125,-1.9599609375,0.05419921875,-4.8675537109375,1.2054443359375,0.5035400390625,53.37826617826617,-63.27423687423687,47.53064713064713,-1.43310546875,1.400390625,-0.04296875,-1.19781494140625,0.74005126953125,1.5716552734375,-41.683028083028084,42.88253968253968,-88.16410256410256
44:13.312,0.3828125,0.15234375,1.994140625,-0.8087158203125,-2.2735595703125,0.3814697265625,42.13284493284493,-15.593650793650793,96.86056166056166,-0.197265625,-1.95458984375,0.0078125,-3.1280517578125,0.17547607421875,1.59454345703125,53.52820512820512,-64.92356532356533,47.08083028083028,-1.4267578125,1.40283203125,-0.0419921875,-0.8697509765625,0.69427490234375,2.00653076171875,-42.28278388278388,42.58266178266178,-90.86300366300365
44:14.092,0.4658203125,0.15625,1.94873046875,1.9989013671875,-16.39556884765625,1.0986328125,41.23321123321123,-17.842735042735043,96.1108669108669,-0.20458984375,-1.9501953125,-0.064453125,-7.46917724609375,0.14495849609375,0.823974609375,54.27789987789988,-63.12429792429792,45.28156288156288,-1.42041015625,1.40087890625,-0.02978515625,-0.90789794921875,0.79345703125,1.5869140625,-41.533089133089135,42.58266178266178,-93.26202686202686
44:14.921,0.4658203125,0.15625,1.94873046875,1.9989013671875,-16.39556884765625,1.0986328125,40.78339438339438,-15.743589743589743,97.46031746031746,-0.19580078125,-1.95263671875,-0.130859375,-2.38800048828125,0.48828125,0.91552734375,52.628571428571426,-62.97435897435897,42.58266178266178,-1.43798828125,1.3857421875,-0.05419921875,-1.82342529296875,1.3427734375,0.80108642578125,-41.98290598290598,43.78217338217338,-90.86300366300365
44:15.701,0.46044921875,0.15185546875,1.99951171875,-5.66864013671875,6.09588623046875,1.28936767578125,40.78339438339438,-15.743589743589743,97.46031746031746,-0.19580078125,-1.95263671875,-0.130859375,-2.38800048828125,0.48828125,0.91552734375,53.078388278388275,-63.57411477411477,41.683028083028084,-1.43798828125,1.3857421875,-0.05419921875,-1.82342529296875,1.3427734375,0.80108642578125,-41.98290598290598,42.28278388278388,-90.86300366300365
44:16.578,0.67919921875,0.166015625,2.130859375,-18.28765869140625,-10.6658935546875,4.17327880859375,41.832967032967034,-16.793162393162394,98.809768009768,-0.17431640625,-1.95068359375,-0.06494140625,-1.96075439453125,3.3416748046875,0.6103515625,53.078388278388275,-63.57411477411477,41.683028083028084,-1.4404296875,1.392578125,-0.052734375,-2.5482177734375,1.47247314453125,-0.81634521484375,-41.98290598290598,42.28278388278388,-90.86300366300365
44:17.456,0.36767578125,0.02734375,1.9404296875,-8.39996337890625,-8.9569091796875,-35.9954833984375,42.58266178266178,-15.743589743589743,92.96214896214896,-0.1455078125,-1.958984375,0.00341796875,-3.42559814453125,1.0833740234375,0.58746337890625,51.57899877899878,-64.77362637362637,44.68180708180708,-1.462890625,1.37109375,-0.02685546875,-1.42669677734375,1.068115234375,1.28173828125,-42.13284493284493,42.13284493284493,-92.06251526251526
44:18.285,0.29443359375,0.08984375,2.0078125,0.823974609375,6.072998046875,-0.64849853515625,52.628571428571426,10.495726495726496,20.24175824175824,-0.1884765625,-1.9697265625,0.0185546875,-1.3275146484375,-0.54931640625,3.01361083984375,54.427838827838826,-65.22344322344323,48.58021978021978,-1.45068359375,1.3720703125,-0.03125,0.5340576171875,0.67901611328125,2.2735595703125,-44.68180708180708,42.88253968253968,-91.31282051282051
44:19.065,0.302734375,0.17431640625,2.08154296875,-0.93841552734375,-0.19073486328125,1.77001953125,62.82442002442002,-3.4485958485958483,-23.84029304029304,-0.16455078125,-1.953125,-0.01513671875,-2.5634765625,0.90789794921875,1.1749267578125,53.67814407814408,-64.47374847374847,48.58021978021978,-1.443359375,1.380859375,-0.04052734375,-0.5645751953125,0.57220458984375,1.7852783203125,-43.18241758241758,41.683028083028084,-93.11208791208792
44:19.845,0.302734375,0.17431640625,2.08154296875,-0.93841552734375,-0.19073486328125,1.77001953125,62.82442002442002,-3.4485958485958483,-23.84029304029304,-0.1962890625,-1.96826171875,-0.04296875,-5.5389404296875,2.3956298828125,0.0,53.82808302808303,-63.873992673992674,49.179975579975576,-1.4482421875,1.3740234375,-0.0341796875,-0.885009765625,0.35858154296875,1.8463134765625,-42.43272283272283,42.88253968253968,-92.81221001221
44:20.674,0.13525390625,0.12646484375,1.9873046875,-2.593994140625,14.678955078125,-2.73895263671875,67.32258852258852,-4.348229548229548,-28.638339438339436,-0.1962890625,-1.96826171875,-0.04296875,-5.5389404296875,2.3956298828125,0.0,52.778510378510376,-64.17387057387057,46.33113553113553,-1.4482421875,1.3740234375,-0.0341796875,-0.885009765625,0.35858154296875,1.8463134765625,-41.98290598290598,41.23321123321123,-91.46275946275946
44:21.453,-0.0205078125,0.1181640625,1.9912109375,2.44140625,11.37542724609375,1.7242431640625,40.78339438339438,-8.246642246642246,100.15921855921856,-0.17333984375,-1.96875,-0.0546875,-4.791259765625,2.166748046875,0.93841552734375,52.778510378510376,-64.17387057387057,46.33113553113553,-1.4423828125,1.38037109375,-0.02099609375,-1.21307373046875,0.64849853515625,2.044677734375,-41.98290598290598,41.23321123321123,-91.46275946275946
44:22.331,0.1484375,0.158203125,2.01904296875,-3.265380859375,5.55419921875,-1.76239013671875,41.533089133089135,-5.097924297924298,102.25836385836385,-0.2001953125,-1.94775390625,-0.03955078125,-1.4495849609375,-0.4730224609375,1.220703125,52.17875457875458,-62.97435897435897,44.38192918192918,-1.4404296875,1.38720703125,-0.03857421875,-0.885009765625,0.58746337890625,1.7852783203125,-41.683028083028084,42.43272283272283,-90.26324786324786
44:23.111,0.24072265625,0.19384765625,2.07275390625,4.41741943359375,0.16021728515625,0.20599365234375,41.38315018315018,-7.796825396825397,101.35873015873015,-0.19580078125,-1.97412109375,-0.02880859375,-4.364013671875,-1.07574462890625,1.09100341796875,51.72893772893773,-63.57411477411477,46.03125763125763,-1.43701171875,1.3857421875,-0.04248046875,-0.9613037109375,0.72479248046875,1.6326904296875,-42.58266178266178,42.58266178266178,-91.16288156288157
44:23.891,0.24072265625,0.19384765625,2.07275390625,4.41741943359375,0.16021728515625,0.20599365234375,42.43272283272283,-10.945543345543346,102.7081807081807,-0.18896484375,-1.9609375,-0.08642578125,-2.22015380859375,0.43487548828125,1.07574462890625,53.078388278388275,-64.62368742368741,45.58144078144078,-1.43603515625,1.392578125,-0.0361328125,-1.09100341796875,0.83160400390625,1.6326904296875,-40.63345543345543,41.683028083028084,-92.06251526251526
44:24.720,0.22314453125,0.19970703125,2.0361328125,-6.12640380859375,3.56292724609375,-1.30462646484375,42.43272283272283,-10.945543345543346,102.7081807081807,-0.18896484375,-1.9609375,-0.08642578125,-1.495361328125,0.030517578125,1.15966796875,53.37826617826617,-65.22344322344323,44.68180708180708,-1.43603515625,1.392578125,-0.0361328125,-1.09100341796875,0.83160400390625,1.6326904296875,-42.13284493284493,42.43272283272283,-92.06251526251526
44:25.500,-0.0078125,0.15966796875,2.03564453125,-1.4495849609375,-10.9100341796875,-4.02069091796875,41.832967032967034,-8.246642246642246,102.85811965811965,-0.21337890625,-1.9501953125,-0.044921875,-1.495361328125,0.030517578125,1.15966796875,53.37826617826617,-65.22344322344323,44.68180708180708,-1.44140625,1.38916015625,-0.03125,-1.24359130859375,0.8392333984375,1.495361328125,-42.13284493284493,42.43272283272283,-92.06251526251526
44:26.328,0.39697265625,0.150390625,1.966796875,-4.39453125,-16.48712158203125,-2.62451171875,42.58266178266178,-7.197069597069596,102.25836385836385,-0.20068359375,-1.962890625,-0.0146484375,-4.913330078125,0.1220703125,0.78582763671875,51.129181929181925,-63.27423687423687,44.38192918192918,-1.43359375,1.3916015625,-0.03173828125,-1.28936767578125,0.31280517578125,1.89971923828125,-43.33235653235653,43.33235653235653,-91.9125763125763
44:27.108,0.17822265625,0.1875,2.04443359375,-0.96893310546875,4.5166015625,-1.8463134765625,42.28278388278388,-10.045909645909646,102.25836385836385,-0.2021484375,-1.9658203125,-0.06982421875,-3.0059814453125,-0.30517578125,1.09100341796875,53.078388278388275,-63.12429792429792,46.03125763125763,-1.44091796875,1.38623046875,-0.02978515625,-0.86212158203125,0.92315673828125,1.739501953125,-41.98290598290598,40.78339438339438,-92.96214896214896
44:27.888,0.17822265625,0.1875,2.04443359375,-0.96893310546875,4.5166015625,-1.8463134765625,40.63345543345543,-8.846398046398047,103.3079365079365,-0.2021484375,-1.953125,-0.068359375,-2.2125244140625,0.26702880859375,1.45721435546875,52.628571428571426,-63.724053724053725,45.431501831501826,-1.4404296875,1.38525390625,-0.04296875,-1.2054443359375,1.0223388671875,1.5716552734375,-42.28278388278388,42.28278388278388,-90.86300366300365
44:28.717,0.25927734375,0.17919921875,2.03759765625,-2.38037109375,2.01416015625,1.9683837890625,40.63345543345543,-8.846398046398047,103.3079365079365,-0.2021484375,-1.953125,-0.068359375,-2.288818359375,-0.26702880859375,1.0528564453125,53.078388278388275,-62.82442002442002,44.53186813186813,-1.4404296875,1.38525390625,-0.04296875,-1.2054443359375,1.0223388671875,1.5716552734375,-43.482295482295484,42.43272283272283,-90.26324786324786
44:29.497,0.20166015625,0.1611328125,2.01904296875,-1.434326171875,1.31988525390625,-0.20599365234375,39.433943833943836,-8.246642246642246,101.80854700854701,-0.22314453125,-1.958984375,-0.0322265625,-2.288818359375,-0.26702880859375,1.0528564453125,53.078388278388275,-62.82442002442002,44.53186813186813,-1.44287109375,1.3837890625,-0.03466796875,-0.8544921875,0.67901611328125,1.678466796875,-43.482295482295484,42.43272283272283,-90.26324786324786
44:30.375,0.2353515625,0.1708984375,2.03662109375,-0.54931640625,1.6021728515625,0.9307861328125,41.23321123321123,-8.996336996336996,100.15921855921856,-0.212890625,-1.9482421875,-0.06396484375,-3.48663330078125,0.0,0.762939453125,53.82808302808303,-63.12429792429792,43.78217338217338,-1.443359375,1.38720703125,-0.02685546875,-0.93841552734375,0.70953369140625,1.67083740234375,-41.533089133089135,43.03247863247863,-91.46275946275946
44:31.155,0.21435546875,0.171875,2.0126953125,-0.9765625,1.99127197265625,0.16021728515625,41.23321123321123,-8.996336996336996,103.15799755799756,-0.21240234375,-1.9697265625,-0.07958984375,-3.11279296875,-0.1983642578125,0.823974609375,50.979242979242976,-62.82442002442002,45.58144078144078,-1.43896484375,1.39208984375,-0.03662109375,-0.75531005859375,1.03759765625,1.5411376953125,-44.68180708180708,42.43272283272283,-91.01294261294261
44:31.935,0.21435546875,0.171875,2.0126953125,-0.9765625,1.99127197265625,0.16021728515625,41.832967032967034,-7.946764346764346,102.85811965811965,-0.20947265625,-1.95751953125,-0.06298828125,-2.1514892578125,-0.41961669921875,1.0223388671875,52.928449328449325,-62.52454212454212,45.431501831501826,-1.43603515625,1.38134765625,-0.02783203125,-1.0223388671875,0.77056884765625,1.7547607421875,-44.23199023199023,40.93333333333333,-92.06251526251526
44:32.763,0.20849609375,0.1640625,2.03466796875,-1.53350830078125,1.13677978515625,-0.274658203125,41.832967032967034,-7.946764346764346,102.85811965811965,-0.20947265625,-1.95751953125,-0.06298828125,-5.85174560546875,-0.1220703125,0.7171630859375,51.129181929181925,-62.97435897435897,43.63223443223443,-1.43603515625,1.38134765625,-0.02783203125,-0.7476806640625,0.60272216796875,1.708984375,-42.13284493284493,42.43272283272283,-91.01294261294261
44:33.544,0.27001953125,0.17626953125,2.02197265625,-0.0457763671875,3.4942626953125,-0.17547607421875,41.533089133089135,-9.746031746031745,103.9076923076923,-0.208984375,-1.9580078125,-0.05615234375,-5.85174560546875,-0.1220703125,0.7171630859375,51.129181929181925,-62.97435897435897,43.63223443223443,-1.44189453125,1.3837890625,-0.037109375,-0.7476806640625,0.60272216796875,1.708984375,-42.13284493284493,42.43272283272283,-91.01294261294261
44:34.372,0.2431640625,0.17431640625,2.0185546875,-1.5869140625,1.80816650390625,-0.8544921875,41.38315018315018,-10.645665445665445,103.3079365079365,-0.2138671875,-1.95263671875,-0.072265625,-3.77655029296875,-0.03814697265625,0.762939453125,51.279120879120875,-64.17387057387057,44.23199023199023,-1.44775390625,1.37890625,-0.0302734375,-1.15966796875,0.70953369140625,1.59454345703125,-44.68180708180708,42.43272283272283,-89.96336996336996
44:35.152,0.30126953125,0.14208984375,1.99365234375,2.64739990234375,-6.95037841796875,-2.8839111328125,42.58266178266178,-9.296214896214895,103.9076923076923,-0.22119140625,-1.96875,-0.06689453125,-0.5340576171875,1.2054443359375,0.946044921875,51.72893772893773,-63.873992673992674,44.23199023199023,-1.4443359375,1.375,-0.037109375,-2.73895263671875,2.1209716796875,0.9918212890625,-42.58266178266178,40.033699633699634,-91.46275946275946
44:35.932,0.30126953125,0.14208984375,1.99365234375,2.64739990234375,-6.95037841796875,-2.8839111328125,43.63223443223443,-10.045909645909646,103.9076923076923,-0.1884765625,-1.978515625,0.00927734375,-0.4119873046875,3.448486328125,6.5155029296875,52.628571428571426,-62.97435897435897,43.63223443223443,-1.4423828125,1.3818359375,-0.03564453125,-1.06048583984375,1.0833740234375,1.02996826171875,-40.78339438339438,41.533089133089135,-91.46275946275946
44:36.761,0.24951171875,-0.07666015625,2.07666015625,0.3509521484375,4.49371337890625,3.42559814453125,43.63223443223443,-10.045909645909646,103.9076923076923,-0.1884765625,-1.978515625,0.00927734375,-1.62506103515625,-1.8768310546875,0.05340576171875,53.078388278388275,-64.17387057387057,46.63101343101343,-1.4423828125,1.3818359375,-0.03564453125,-1.21307373046875,0.9002685546875,1.373291015625,-41.98290598290598,42.28278388278388,-91.46275946275946
44:37.590,0.22705078125,0.07861328125,1.962890625,-4.8370361328125,7.36236572265625,7.72857666015625,79.76752136752137,-1.6493284493284492,93.86178266178266,-0.140625,-1.9384765625,-0.00390625,-1.62506103515625,-1.8768310546875,0.05340576171875,53.078388278388275,-64.17387057387057,46.63101343101343,-1.44873046875,1.3837890625,-0.005859375,-1.21307373046875,0.9002685546875,1.373291015625,-41.98290598290598,42.28278388278388,-91.46275946275946
44:38.370,0.41064453125,0.14306640625,2.07568359375,-4.20379638671875,-20.88165283203125,-2.4871826171875,57.27667887667887,11.095482295482295,-23.39047619047619,-0.1748046875,-1.95654296875,-0.0087890625,-3.0975341796875,0.4425048828125,-0.091552734375,55.32747252747252,-64.62368742368741,48.73015873015873,-1.45361328125,1.3798828125,-0.03955078125,-1.04522705078125,1.2359619140625,1.678466796875,-42.13284493284493,41.683028083028084,-91.31282051282051
44:39.150,0.22607421875,0.12841796875,2.05712890625,-3.082275390625,9.3536376953125,-2.06756591796875,43.78217338217338,20.09181929181929,-23.39047619047619,-0.17919921875,-1.95947265625,0.0302734375,0.74005126953125,0.29754638671875,0.579833984375,52.778510378510376,-65.67326007326007,47.08083028083028,-1.44140625,1.37109375,-0.03076171875,-1.15203857421875,1.02996826171875,1.71661376953125,-43.33235653235653,43.03247863247863,-91.9125763125763
44:40.041,0.22607421875,0.12841796875,2.05712890625,1.0833740234375,0.244140625,0.885009765625,61.32503052503052,4.498168498168498,-27.288888888888888,-0.177734375,-1.9716796875,0.01318359375,-3.76129150390625,-1.21307373046875,0.70953369140625,52.628571428571426,-65.22344322344323,48.28034188034188,-1.46484375,1.3544921875,-0.0263671875,-1.31988525390625,1.10626220703125,0.79345703125,-41.98290598290598,42.28278388278388,-91.9125763125763
44:40.856,0.4296875,0.12255859375,2.02197265625,1.0833740234375,0.244140625,0.885009765625,62.67448107448107,5.697680097680098,-31.487179487179485,-0.18896484375,-1.9501953125,0.00048828125,-2.34222412109375,-1.15203857421875,1.25885009765625,53.37826617826617,-62.52454212454212,49.329914529914525,-1.45458984375,1.36572265625,-0.0234375,-0.54931640625,0.67138671875,1.86920166015625,-42.13284493284493,41.38315018315018,-90.71306471306471
44:41.636,-0.05224609375,0.24951171875,1.94970703125,3.9520263671875,-7.2174072265625,5.24139404296875,62.67448107448107,5.697680097680098,-31.487179487179485,-0.18896484375,-1.9501953125,0.00048828125,-2.34222412109375,-1.15203857421875,1.25885009765625,52.928449328449325,-62.52454212454212,48.28034188034188,-1.45458984375,1.36572265625,-0.0234375,-0.54931640625,0.67138671875,1.86920166015625,-42.13284493284493,41.38315018315018,-90.71306471306471
44:42.416,-0.28271484375,0.12060546875,1.869140625,-38.63525390625,-25.65765380859375,-71.4263916015625,33.13650793650793,-9.746031746031745,97.46031746031746,-0.1328125,-1.96484375,0.04638671875,-3.3721923828125,3.99017333984375,0.518798828125,52.928449328449325,-62.52454212454212,48.28034188034188,-1.443359375,1.37353515625,-0.03271484375,-0.8544921875,1.40380859375,1.4801025390625,-43.78217338217338,42.58266178266178,-91.46275946275946
44:43.245,0.3330078125,0.12841796875,1.9619140625,3.54766845703125,1.56402587890625,7.0343017578125,45.58144078144078,-3.7484737484737485,95.810989010989,-0.1484375,-1.9638671875,0.02001953125,-3.25775146484375,-3.88336181640625,2.6092529296875,54.577777777777776,-66.12307692307692,48.73015873015873,-1.43994140625,1.3779296875,-0.03466796875,-0.61798095703125,2.57110595703125,1.01470947265625,-41.533089133089135,41.23321123321123,-93.56190476190476
44:44.025,0.3330078125,0.12841796875,1.9619140625,7.659912109375,10.45989990234375,15.3045654296875,-8.846398046398047,9.596092796092796,7.047130647130647,-0.197265625,-1.96923828125,0.0205078125,-4.67681884765625,-0.1983642578125,1.93023681640625,53.37826617826617,-65.52332112332113,48.88009768009768,-1.45556640625,1.38330078125,-0.02392578125,-2.1209716796875,1.15203857421875,0.6561279296875,-43.33235653235653,42.58266178266178,-89.81343101343101
44:44.854,0.28564453125,-0.013671875,2.0576171875,7.659912109375,10.45989990234375,15.3045654296875,52.928449328449325,14.993894993894994,55.62735042735043,-0.14990234375,-2.0078125,0.00341796875,-3.79180908203125,-6.7596435546875,1.33514404296875,54.577777777777776,-62.82442002442002,48.73015873015873,-1.4521484375,1.36328125,-0.0302734375,0.18310546875,-0.12969970703125,1.708984375,-43.93211233211233,43.18241758241758,-90.71306471306471
44:45.633,0.2919921875,0.3017578125,1.7646484375,-5.83648681640625,1.7547607421875,5.57708740234375,52.928449328449325,14.993894993894994,55.62735042735043,-0.14990234375,-2.0078125,0.00341796875,-3.79180908203125,-6.7596435546875,1.33514404296875,52.778510378510376,-63.12429792429792,50.22954822954823,-1.4521484375,1.36328125,-0.0302734375,0.18310546875,-0.12969970703125,1.708984375,-43.93211233211233,43.18241758241758,-90.71306471306471
44:46.413,0.27197265625,-0.20458984375,1.9521484375,-0.34332275390625,21.7132568359375,-4.53948974609375,-4.498168498168498,4.348229548229548,10.345787545787545,-0.21484375,-1.978515625,0.04150390625,-1.24359130859375,0.40435791015625,2.58636474609375,52.778510378510376,-63.12429792429792,50.22954822954823,-1.45751953125,1.37109375,-0.0263671875,-2.40325927734375,0.77056884765625,1.04522705078125,-42.43272283272283,42.13284493284493,-91.76263736263736
44:47.194,0.11279296875,0.275390625,2.12744140625,12.786865234375,12.84027099609375,14.62554931640625,35.835409035409036,-27.13894993894994,81.41684981684982,-0.240234375,-1.98193359375,-0.02099609375,-5.096435546875,0.396728515625,2.95257568359375,53.67814407814408,-65.22344322344323,50.67936507936508,-1.4580078125,1.36669921875,-0.03759765625,-0.54168701171875,0.274658203125,2.57110595703125,-43.482295482295484,42.43272283272283,-89.21367521367522
44:47.974,0.11279296875,0.275390625,2.12744140625,-0.5950927734375,-13.7176513671875,-0.946044921875,39.583882783882785,-8.396581196581197,99.55946275946276,-0.2080078125,-1.95556640625,-0.08349609375,-3.082275390625,0.00762939453125,0.5035400390625,52.17875457875458,-62.224664224664224,48.58021978021978,-1.4541015625,1.3662109375,-0.01171875,-1.129150390625,0.3814697265625,1.89208984375,-41.683028083028084,42.43272283272283,-91.31282051282051
44:48.802,0.06201171875,0.2724609375,2.15576171875,-0.5950927734375,-13.7176513671875,-0.946044921875,39.583882783882785,-8.396581196581197,99.55946275946276,-0.2041015625,-1.98095703125,-0.06298828125,-2.29644775390625,-0.579833984375,0.4730224609375,53.52820512820512,-63.12429792429792,45.58144078144078,-1.4541015625,1.3662109375,-0.01171875,-0.5340576171875,1.312255859375,1.7242431640625,-43.18241758241758,43.93211233211233,-92.81221001221
44:49.631,0.0869140625,0.13916015625,1.9130859375,-5.95855712890625,-0.7781982421875,-5.096435546875,40.18363858363858,-11.095482295482295,101.80854700854701,-0.2041015625,-1.98095703125,-0.06298828125,-2.29644775390625,-0.579833984375,0.4730224609375,53.078388278388275,-63.873992673992674,44.98168498168498,-1.4462890625,1.373046875,-0.01513671875,-0.5340576171875,1.312255859375,1.7242431640625,-43.18241758241758,43.93211233211233,-92.81221001221
44:50.411,0.240234375,0.17626953125,2.03271484375,-0.5950927734375,4.69970703125,1.04522705078125,38.38437118437118,-9.296214896214895,101.20879120879121,-0.1962890625,-1.94677734375,-0.02490234375,-0.19073486328125,-0.78582763671875,1.62506103515625,53.078388278388275,-63.873992673992674,44.98168498168498,-1.45068359375,1.373046875,-0.00244140625,-0.92315673828125,0.3509521484375,1.6632080078125,-45.58144078144078,43.03247863247863,-90.11330891330891
44:51.191,0.08837890625,0.18505859375,2.046875,-0.48828125,-7.38525390625,1.52587890625,39.583882783882785,-9.146275946275946,104.35750915750916,-0.2138671875,-1.95166015625,-0.04638671875,-2.2735595703125,0.54931640625,1.54876708984375,51.87887667887668,-62.52454212454212,45.431501831501826,-1.44921875,1.37744140625,-0.0009765625,-0.67138671875,0.9002685546875,1.47247314453125,-43.482295482295484,42.13284493284493,-89.96336996336996
44:51.971,0.08837890625,0.18505859375,2.046875,0.11444091796875,22.430419921875,1.64794921875,39.28400488400488,-9.446153846153846,103.3079365079365,-0.2177734375,-1.94677734375,-0.0458984375,-3.80706787109375,1.45721435546875,0.9918212890625,52.47863247863248,-60.87521367521367,44.98168498168498,-1.443359375,1.3857421875,-0.021484375,-0.7781982421875,0.66375732421875,1.71661376953125,-44.38192918192918,42.28278388278388,-90.86300366300365
44:52.751,0.25439453125,0.18017578125,2.0400390625,0.11444091796875,22.430419921875,1.64794921875,39.28400488400488,-9.446153846153846,103.3079365079365,-0.2177734375,-1.94677734375,-0.0458984375,-3.19671630859375,0.90789794921875,0.87738037109375,51.279120879120875,-62.37460317460317,45.28156288156288,-1.443359375,1.3857421875,-0.021484375,-1.45721435546875,1.07574462890625,1.617431640625,-42.58266178266178,42.58266178266178,-90.41318681318681
44:53.580,0.119140625,0.12646484375,1.97509765625,-1.434326171875,16.05987548828125,6.93511962890625,40.78339438339438,-10.345787545787545,102.85811965811965,-0.20166015625,-1.96533203125,-0.0087890625,-3.19671630859375,0.90789794921875,0.87738037109375,51.279120879120875,-62.37460317460317,45.28156288156288,-1.44287109375,1.384765625,-0.0302734375,-1.45721435546875,1.07574462890625,1.617431640625,-42.58266178266178,42.58266178266178,-90.41318681318681
44:54.360,-0.0244140625,0.12109375,2.00537109375,10.589599609375,-15.75469970703125,1.99127197265625,40.18363858363858,-7.946764346764346,103.15799755799756,-0.21044921875,-1.9638671875,-0.10546875,-6.23321533203125,3.3416748046875,0.885009765625,52.628571428571426,-62.97435897435897,48.58021978021978,-1.44775390625,1.3818359375,-0.0263671875,-1.41143798828125,1.0528564453125,1.373291015625,-44.08205128205128,43.03247863247863,-91.16288156288157
44:55.140,0.0771484375,0.087890625,1.900390625,0.12969970703125,12.451171875,-1.983642578125,40.63345543345543,-9.446153846153846,101.95848595848595,-0.19580078125,-1.947265625,-0.11962890625,-1.73187255859375,2.3040771484375,0.93841552734375,52.628571428571426,-64.47374847374847,45.431501831501826,-1.4501953125,1.37939453125,-0.009765625,-0.396728515625,0.64849853515625,1.8157958984375,-41.533089133089135,43.03247863247863,-90.41318681318681
44:55.920,0.0771484375,0.087890625,1.900390625,0.12969970703125,12.451171875,-1.983642578125,40.78339438339438,-8.546520146520146,101.80854700854701,-0.19921875,-1.94873046875,-0.13232421875,-2.6702880859375,-0.3509521484375,0.7781982421875,51.72893772893773,-64.62368742368741,43.78217338217338,-1.44775390625,1.37060546875,-0.0322265625,-1.068115234375,0.8087158203125,1.5869140625,-42.88253968253968,43.18241758241758,-88.91379731379732
44:56.700,0.14599609375,0.1796875,2.0341796875,-1.86920166015625,-1.64794921875,-1.2054443359375,40.78339438339438,-8.546520146520146,101.80854700854701,-0.19921875,-1.94873046875,-0.13232421875,-2.6702880859375,-0.3509521484375,0.7781982421875,52.47863247863248,-63.873992673992674,42.73260073260073,-1.44775390625,1.37060546875,-0.0322265625,-1.068115234375,0.8087158203125,1.5869140625,-42.13284493284493,43.93211233211233,-92.06251526251526
44:57.577,0.0751953125,0.15283203125,2.025390625,-0.99945068359375,-2.31170654296875,0.70953369140625,40.33357753357753,-9.446153846153846,104.35750915750916,-0.2021484375,-1.95361328125,-0.05615234375,0.457763671875,-1.12152099609375,1.4801025390625,52.47863247863248,-63.873992673992674,42.73260073260073,-1.44482421875,1.38623046875,-0.03369140625,-1.07574462890625,0.9765625,1.7242431640625,-42.13284493284493,43.93211233211233,-92.06251526251526
44:58.357,0.16455078125,0.1708984375,2.05615234375,3.021240234375,-5.5389404296875,-4.38690185546875,41.533089133089135,-7.946764346764346,103.9076923076923,-0.22802734375,-1.9755859375,-0.01171875,-0.6866455078125,-2.03704833984375,-0.1983642578125,54.27789987789988,-64.92356532356533,44.98168498168498,-1.4453125,1.36572265625,-0.0146484375,-1.76239013671875,0.92315673828125,1.31988525390625,-42.43272283272283,44.68180708180708,-90.71306471306471
44:59.137,0.20166015625,0.068359375,1.93115234375,6.8206787109375,-0.457763671875,3.3111572265625,40.93333333333333,-7.347008547008547,104.807326007326,-0.177734375,-1.958984375,0.0703125,0.0,-3.0517578125,0.34332275390625,51.72893772893773,-63.12429792429792,46.33113553113553,-1.447265625,1.3759765625,-0.03662109375,-1.6021728515625,1.129150390625,1.68609619140625,-42.43272283272283,43.93211233211233,-89.66349206349206
44:59.917,0.20166015625,0.068359375,1.93115234375,6.8206787109375,-0.457763671875,3.3111572265625,63.57411477411477,-6.597313797313797,95.2112332112332,-0.197265625,-1.958984375,0.0712890625,-7.8582763671875,-8.7738037109375,1.60980224609375,54.727716727716725,-63.724053724053725,48.88009768009768,-1.45556640625,1.365234375,-0.0185546875,-1.73187255859375,0.64849853515625,1.40380859375,-43.93211233211233,43.482295482295484,-91.31282051282051
45:00.697,0.43896484375,-0.083984375,2.017578125,-1.48773193359375,-19.73724365234375,34.1949462890625,63.57411477411477,-6.597313797313797,95.2112332112332,-0.197265625,-1.958984375,0.0712890625,-7.8582763671875,-8.7738037109375,1.60980224609375,54.27789987789988,-65.67326007326007,50.22954822954823,-1.45556640625,1.365234375,-0.0185546875,-1.73187255859375,0.64849853515625,1.40380859375,-42.28278388278388,44.08205128205128,-90.11330891330891
45:01.477,0.22314453125,-0.412109375,2.283203125,-11.16943359375,12.7105712890625,-6.0577392578125,17.242979242979242,5.247863247863248,24.14017094017094,-0.2041015625,-1.9423828125,0.10009765625,-2.74658203125,6.34002685546875,4.669189453125,54.27789987789988,-65.67326007326007,50.22954822954823,-1.45361328125,1.376953125,-0.0009765625,-0.84686279296875,0.1983642578125,2.20489501953125,-42.28278388278388,44.08205128205128,-90.11330891330891
45:02.306,0.07666015625,-0.11767578125,1.98974609375,5.584716796875,-5.80596923828125,0.946044921875,43.33235653235653,-24.29010989010989,89.21367521367522,-0.16845703125,-1.94140625,0.03369140625,-2.9296875,-1.373291015625,0.61798095703125,53.67814407814408,-65.22344322344323,49.329914529914525,-1.4521484375,1.380859375,-0.017578125,-1.22833251953125,0.7781982421875,1.708984375,-44.68180708180708,42.43272283272283,-92.06251526251526
45:03.086,0.09765625,-0.0537109375,2.03369140625,0.1983642578125,3.448486328125,1.495361328125,39.733821733821735,-17.842735042735043,94.01172161172161,-0.1875,-1.94091796875,0.04345703125,-2.93731689453125,0.4425048828125,0.48065185546875,53.67814407814408,-64.02393162393162,48.88009768009768,-1.44580078125,1.37841796875,-0.01904296875,-1.01470947265625,1.04522705078125,1.30462646484375,-42.43272283272283,41.38315018315018,-90.71306471306471
45:03.866,0.09765625,-0.0537109375,2.03369140625,0.1983642578125,3.448486328125,1.495361328125,41.38315018315018,-19.49206349206349,95.2112332112332,-0.19873046875,-1.94775390625,0.0400390625,-3.77655029296875,-0.89263916015625,1.0986328125,53.67814407814408,-63.724053724053725,48.58021978021978,-1.4423828125,1.3720703125,-0.03515625,-0.74005126953125,0.66375732421875,1.88446044921875,-43.18241758241758,42.43272283272283,-91.76263736263736
45:04.646,0.28955078125,-0.03515625,1.77978515625,4.364013671875,-1.57928466796875,-12.44354248046875,41.38315018315018,-19.49206349206349,95.2112332112332,-0.19873046875,-1.94775390625,0.0400390625,-3.77655029296875,-0.89263916015625,1.0986328125,53.97802197802198,-66.57289377289376,49.329914529914525,-1.4423828125,1.3720703125,-0.03515625,-0.74005126953125,0.66375732421875,1.88446044921875,-43.18241758241758,42.43272283272283,-91.76263736263736
45:05.426,0.20751953125,0.01953125,2.0380859375,2.61688232421875,-0.701904296875,1.15203857421875,63.57411477411477,-27.738705738705736,46.78095238095238,-0.15673828125,-1.96240234375,0.05419921875,-2.96783447265625,0.3662109375,1.2054443359375,53.97802197802198,-66.57289377289376,49.329914529914525,-1.4443359375,1.37158203125,-0.04638671875,-0.9307861328125,0.9613037109375,1.39617919921875,-41.98290598290598,42.58266178266178,-91.16288156288157
45:06.206,0.46240234375,0.0546875,1.92236328125,5.82122802734375,-1.6326904296875,0.98419189453125,71.22100122100122,-32.08693528693529,28.93821733821734,-0.1181640625,-1.9853515625,0.046875,-2.0294189453125,-2.37274169921875,0.3509521484375,53.97802197802198,-64.47374847374847,48.88009768009768,-1.44921875,1.36474609375,-0.04296875,-0.84686279296875,1.13677978515625,1.77764892578125,-43.18241758241758,43.482295482295484,-91.31282051282051
45:06.986,0.46240234375,0.0546875,1.92236328125,10.64300537109375,9.77325439453125,2.9296875,26.389255189255188,1.3494505494505493,36.435164835164834,-0.1142578125,-1.96142578125,0.0517578125,-3.0059814453125,0.55694580078125,1.60980224609375,54.27789987789988,-64.92356532356533,49.479853479853475,-1.453125,1.36865234375,-0.00927734375,-0.823974609375,-0.20599365234375,2.9296875,-43.93211233211233,42.13284493284493,-89.96336996336996
45:07.766,0.271484375,-0.0517578125,2.0517578125,10.64300537109375,9.77325439453125,2.9296875,26.389255189255188,1.3494505494505493,36.435164835164834,-0.1142578125,-1.96142578125,0.0517578125,-3.631591796875,0.152587890625,0.9918212890625,53.67814407814408,-65.52332112332113,51.72893772893773,-1.453125,1.36865234375,-0.00927734375,-0.6256103515625,0.732421875,1.708984375,-43.93211233211233,42.88253968253968,-91.76263736263736
45:08.595,-0.033203125,-0.123046875,1.8720703125,-8.67462158203125,0.09918212890625,3.814697265625,53.52820512820512,-0.7496947496947497,39.433943833943836,-0.16162109375,-1.95361328125,0.0830078125,-3.631591796875,0.152587890625,0.9918212890625,53.67814407814408,-65.52332112332113,51.72893772893773,-1.44873046875,1.37158203125,-0.04345703125,-0.6256103515625,0.732421875,1.708984375,-43.93211233211233,42.88253968253968,-91.76263736263736
45:09.375,0.16455078125,-0.130859375,2.04052734375,-1.86920166015625,0.17547607421875,0.32806396484375,40.33357753357753,-16.343345543345542,89.36361416361416,-0.1748046875,-1.962890625,0.0634765625,-3.50189208984375,1.24359130859375,1.64794921875,53.97802197802198,-64.47374847374847,51.429059829059824,-1.44921875,1.3720703125,-0.02001953125,-0.25177001953125,0.244140625,2.471923828125,-43.33235653235653,41.533089133089135,-90.41318681318681
45:10.155,0.435546875,-0.10986328125,1.99951171875,8.148193359375,14.801025390625,-2.50244140625,42.28278388278388,-18.29255189255189,92.36239316239316,-0.150390625,-1.94677734375,0.1201171875,-2.9449462890625,-6.16455078125,-0.00762939453125,55.17753357753357,-64.47374847374847,50.37948717948718,-1.4560546875,1.38037109375,-0.01318359375,-2.43377685546875,1.220703125,1.01470947265625,-42.88253968253968,41.683028083028084,-90.71306471306471
45:10.935,0.435546875,-0.10986328125,1.99951171875,8.148193359375,14.801025390625,-2.50244140625,55.17753357753357,-13.044688644688645,52.928449328449325,-0.16796875,-1.95556640625,0.06103515625,-4.41741943359375,2.26593017578125,2.99072265625,53.82808302808303,-66.42295482295482,50.829304029304026,-1.45263671875,1.37255859375,-0.02490234375,-1.1444091796875,1.068115234375,1.91497802734375,-43.78217338217338,41.533089133089135,-91.9125763125763
45:11.715,0.37451171875,-0.28515625,2.07666015625,-5.77545166015625,23.0560302734375,7.8887939453125,55.17753357753357,-13.044688644688645,52.928449328449325,-0.16796875,-1.95556640625,0.06103515625,-2.49481201171875,-1.13677978515625,0.86212158203125,53.52820512820512,-63.873992673992674,50.52942612942613,-1.45263671875,1.37255859375,-0.02490234375,-0.05340576171875,1.1749267578125,1.39617919921875,-42.88253968253968,42.43272283272283,-90.71306471306471
45:12.593,0.1748046875,-0.095703125,2.02685546875,-1.07574462890625,4.15802001953125,-0.87738037109375,53.97802197802198,-21.29133089133089,85.01538461538462,-0.16845703125,-1.94384765625,0.04833984375,-2.49481201171875,-1.13677978515625,0.86212158203125,53.52820512820512,-63.873992673992674,50.52942612942613,-1.4638671875,1.3994140625,-0.02001953125,-0.05340576171875,1.1749267578125,1.39617919921875,-42.88253968253968,42.43272283272283,-90.71306471306471
45:13.373,0.1767578125,-0.09814453125,2.029296875,-1.495361328125,-0.0762939453125,0.67138671875,53.67814407814408,-16.64322344322344,93.86178266178266,-0.16748046875,-1.96044921875,0.06640625,-3.71551513671875,-0.3509521484375,1.16729736328125,54.27789987789988,-63.12429792429792,48.43028083028083,-1.44677734375,1.37255859375,-0.03564453125,-1.33514404296875,0.98419189453125,1.79290771484375,-42.58266178266178,41.533089133089135,-91.46275946275946
45:14.152,0.1494140625,-0.1103515625,2.0498046875,-1.94549560546875,1.739501953125,0.00762939453125,54.877655677655675,-14.993894993894994,94.31159951159951,-0.18603515625,-1.95849609375,0.03369140625,-1.74713134765625,-0.5035400390625,0.579833984375,53.078388278388275,-64.62368742368741,49.77973137973138,-1.4453125,1.3818359375,-0.0380859375,-1.53350830078125,1.2664794921875,1.28173828125,-42.88253968253968,42.88253968253968,-91.31282051282051
45:14.932,0.1494140625,-0.1103515625,2.0498046875,-1.94549560546875,1.739501953125,0.00762939453125,54.877655677655675,-13.194627594627594,94.76141636141635,-0.16455078125,-1.966796875,0.078125,-4.93621826171875,4.99725341796875,-0.41961669921875,53.82808302808303,-64.92356532356533,49.179975579975576,-1.4560546875,1.36376953125,-0.013671875,-0.78582763671875,0.37384033203125,1.99127197265625,-43.33235653235653,43.78217338217338,-90.11330891330891
45:15.712,0.45361328125,-0.1103515625,1.990234375,0.86212158203125,2.838134765625,1.83868408203125,54.877655677655675,-13.194627594627594,94.76141636141635,-0.16455078125,-1.966796875,0.078125,-0.84686279296875,-1.62506103515625,2.38037109375,55.17753357753357,-65.22344322344323,50.67936507936508,-1.4560546875,1.36376953125,-0.013671875,2.471923828125,0.518798828125,3.1280517578125,-42.88253968253968,41.38315018315018,-89.96336996336996
45:16.541,0.23046875,0.095703125,1.9306640625,-14.6636962890625,14.4500732421875,4.60052490234375,62.52454212454212,-16.343345543345542,22.64078144078144,-0.17041015625,-1.96044921875,0.10302734375,-0.84686279296875,-1.62506103515625,2.38037109375,55.17753357753357,-65.22344322344323,50.67936507936508,-1.45068359375,1.3779296875,-0.005859375,2.471923828125,0.518798828125,3.1280517578125,-42.88253968253968,41.38315018315018,-89.96336996336996
45:17.321,0.0859375,-0.1083984375,2.0478515625,-2.01416015625,3.59344482421875,1.04522705078125,41.832967032967034,12.444932844932845,23.84029304029304,-0.18408203125,-1.958984375,0.06201171875,-5.4473876953125,-0.8087158203125,1.64031982421875,54.427838827838826,-65.52332112332113,53.228327228327224,-1.44921875,1.36767578125,-0.009765625,-0.6561279296875,0.96893310546875,1.56402587890625,-43.33235653235653,43.03247863247863,-92.2124542124542
45:18.101,0.115234375,-0.099609375,2.0546875,-1.77001953125,3.39508056640625,0.05340576171875,40.78339438339438,-17.54285714285714,94.01172161172161,-0.17138671875,-1.9619140625,0.04052734375,-4.45556640625,-0.06866455078125,1.0223388671875,54.877655677655675,-64.17387057387057,49.77973137973138,-1.44580078125,1.36767578125,-0.037109375,-0.99945068359375,0.90789794921875,1.6021728515625,-43.03247863247863,42.28278388278388,-92.96214896214896
45:18.881,0.115234375,-0.099609375,2.0546875,-1.77001953125,3.39508056640625,0.05340576171875,40.78339438339438,-19.941880341880342,93.71184371184371,-0.18701171875,-1.955078125,0.04296875,-2.227783203125,0.48065185546875,1.62506103515625,52.778510378510376,-64.62368742368741,50.22954822954823,-1.455078125,1.38916015625,-0.0283203125,0.0,1.09100341796875,2.62451171875,-44.08205128205128,41.533089133089135,-89.36361416361416
45:19.661,0.05517578125,-0.09814453125,2.00830078125,-0.90789794921875,-2.349853515625,-0.5340576171875,40.78339438339438,-19.941880341880342,93.71184371184371,-0.18701171875,-1.955078125,0.04296875,-2.227783203125,0.48065185546875,1.62506103515625,54.577777777777776,-64.17387057387057,48.43028083028083,-1.455078125,1.38916015625,-0.0283203125,0.0,1.09100341796875,2.62451171875,-43.482295482295484,43.18241758241758,-93.11208791208792
45:20.441,0.37060546875,-0.04931640625,2.01171875,1.85394287109375,9.51385498046875,14.0533447265625,42.28278388278388,-16.793162393162394,92.96214896214896,-0.16796875,-1.927734375,0.068359375,-3.01361083984375,-5.33294677734375,-5.5999755859375,54.577777777777776,-64.17387057387057,48.43028083028083,-1.45654296875,1.3603515625,-0.0283203125,-0.32806396484375,-0.1068115234375,2.54058837890625,-43.482295482295484,43.18241758241758,-93.11208791208792
45:21.221,0.25927734375,0.04833984375,2.09033203125,-1.9683837890625,5.79071044921875,0.45013427734375,38.38437118437118,1.0495726495726496,62.97435897435897,-0.11376953125,-1.97705078125,0.0693359375,-3.86810302734375,-1.4190673828125,0.83160400390625,55.32747252747252,-64.17387057387057,52.32869352869353,-1.4599609375,1.36083984375,-0.03564453125,-1.46484375,0.54168701171875,1.89208984375,-42.88253968253968,40.63345543345543,-91.01294261294261
45:22.001,0.25927734375,0.04833984375,2.09033203125,5.79071044921875,-1.1444091796875,14.07623291015625,15.893528693528692,4.798046398046398,55.92722832722833,-0.10546875,-1.96630859375,0.09521484375,-2.67791748046875,-0.640869140625,0.79345703125,56.07716727716728,-66.42295482295482,52.32869352869353,-1.44580078125,1.3681640625,-0.02197265625,-1.5869140625,1.03759765625,1.46484375,-44.23199023199023,42.13284493284493,-91.01294261294261
45:22.781,0.310546875,-0.0498046875,2.0,5.79071044921875,-1.1444091796875,14.07623291015625,15.893528693528692,4.798046398046398,55.92722832722833,-0.10546875,-1.96630859375,0.09521484375,-4.02069091796875,0.946044921875,1.861572265625,55.47741147741147,-66.27301587301586,52.47863247863248,-1.44580078125,1.3681640625,-0.02197265625,-0.45013427734375,0.4425048828125,2.3651123046875,-43.33235653235653,41.533089133089135,-90.86300366300365
45:23.610,0.3330078125,-0.1142578125,2.10107421875,8.99505615234375,7.01904296875,3.12042236328125,22.34090354090354,4.348229548229548,53.228327228327224,-0.11962890625,-1.9716796875,0.06103515625,-4.02069091796875,0.946044921875,1.861572265625,53.82808302808303,-65.37338217338217,52.628571428571426,-1.4580078125,1.37158203125,-0.0068359375,-0.45013427734375,0.4425048828125,2.3651123046875,-43.33235653235653,41.533089133089135,-90.86300366300365
45:24.390,0.07763671875,0.1826171875,2.07958984375,-2.69317626953125,12.786865234375,-3.9520263671875,55.77728937728938,-3.1487179487179486,33.13650793650793,-0.20654296875,-1.9775390625,-0.056640625,1.02996826171875,-0.25177001953125,-1.01470947265625,53.82808302808303,-65.37338217338217,52.628571428571426,-1.47314453125,1.3681640625,-0.1142578125,-9.26971435546875,6.561279296875,-3.7841796875,-44.83174603174603,42.58266178266178,-92.5123321123321
45:25.170,0.443359375,0.1357421875,1.9853515625,-3.7384033203125,-2.685546875,2.31170654296875,39.733821733821735,-11.845177045177044,101.20879120879121,-0.1669921875,-1.947265625,0.083984375,1.129150390625,-2.92205810546875,-4.5928955078125,52.02881562881563,-62.37460317460317,47.68058608058608,-1.26953125,1.37451171875,0.2890625,-4.15802001953125,-59.36431884765625,10.47515869140625,-48.73015873015873,40.48351648351648,-96.4107448107448
45:25.950,0.443359375,0.1357421875,1.9853515625,-5.31768798828125,11.1541748046875,-6.26373291015625,41.533089133089135,-12.145054945054945,98.50989010989011,-0.169921875,-1.962890625,0.03271484375,-5.80596923828125,5.55419921875,5.3558349609375,53.97802197802198,-63.27423687423687,55.32747252747252,-1.26025390625,1.52783203125,0.498046875,-14.21356201171875,7.42340087890625,0.48828125,-45.28156288156288,60.87521367521367,-67.62246642246642
45:26.730,0.2177734375,0.14306640625,2.0478515625,-5.31768798828125,11.1541748046875,-6.26373291015625,41.533089133089135,-12.145054945054945,98.50989010989011,-0.169921875,-1.962890625,0.03271484375,-2.50244140625,-0.4119873046875,1.02996826171875,54.577777777777776,-64.17387057387057,50.829304029304026,-1.26025390625,1.52783203125,0.498046875,-14.21356201171875,7.42340087890625,0.48828125,-50.37948717948718,69.57167277167277,-72.57045177045177
45:27.510,0.34521484375,0.12939453125,2.02197265625,-1.94549560546875,0.7781982421875,0.38909912109375,40.78339438339438,-12.594871794871795,100.75897435897436,-0.18701171875,-1.9658203125,0.02001953125,-2.50244140625,-0.4119873046875,1.02996826171875,54.577777777777776,-64.17387057387057,50.829304029304026,-1.29931640625,1.45947265625,0.58251953125,-2.26593017578125,0.946044921875,1.8463134765625,-50.37948717948718,69.57167277167277,-72.57045177045177
45:28.291,0.3251953125,0.1357421875,2.02783203125,-2.0751953125,4.974365234375,0.02288818359375,41.832967032967034,-13.644444444444444,96.7106227106227,-0.19384765625,-1.958984375,0.0595703125,-2.17437744140625,-0.9613037109375,0.7781982421875,53.52820512820512,-63.57411477411477,50.22954822954823,-1.30419921875,1.46728515625,0.54833984375,-2.838134765625,0.95367431640625,-1.1444091796875,-47.53064713064713,68.82197802197803,-72.12063492063491
45:29.070,0.443359375,0.10107421875,1.9931640625,-1.4801025390625,-3.7384033203125,-0.0457763671875,40.63345543345543,-10.945543345543346,97.91013431013431,-0.197265625,-1.98486328125,0.0859375,-5.096435546875,-0.86212158203125,0.7476806640625,55.17753357753357,-64.02393162393162,49.62979242979243,-1.28857421875,1.4560546875,0.59814453125,-1.48773193359375,0.1373291015625,2.4871826171875,-46.63101343101343,70.92112332112332,-71.97069597069597
45:29.850,0.443359375,0.10107421875,1.9931640625,-1.4801025390625,-3.7384033203125,-0.0457763671875,41.832967032967034,-9.746031746031745,97.76019536019535,-0.2041015625,-1.94970703125,0.01904296875,-4.180908203125,0.54168701171875,0.4730224609375,55.17753357753357,-62.52454212454212,51.429059829059824,-1.296875,1.46044921875,0.564453125,-0.89263916015625,1.190185546875,1.190185546875,-46.63101343101343,72.27057387057387,-68.82197802197803
45:30.679,0.33740234375,0.13671875,2.0224609375,1.12152099609375,2.2735595703125,-0.152587890625,41.832967032967034,-9.746031746031745,97.76019536019535,-0.2041015625,-1.94970703125,0.01904296875,-4.180908203125,0.54168701171875,0.4730224609375,52.02881562881563,-63.873992673992674,49.479853479853475,-1.296875,1.46044921875,0.564453125,-0.89263916015625,1.190185546875,1.190185546875,-46.18119658119658,72.27057387057387,-70.62124542124542
45:31.459,0.36865234375,0.14892578125,2.0009765625,-0.732421875,-1.44195556640625,-0.1068115234375,40.63345543345543,-14.843956043956043,97.31037851037851,-0.20166015625,-1.96044921875,0.01708984375,-1.47247314453125,-0.81634521484375,0.66375732421875,52.02881562881563,-63.873992673992674,49.479853479853475,-1.29638671875,1.458984375,0.57275390625,-0.9918212890625,0.72479248046875,1.9683837890625,-46.18119658119658,72.27057387057387,-70.62124542124542
45:32.240,0.3955078125,0.14697265625,2.0009765625,-1.04522705078125,0.28228759765625,0.11444091796875,40.18363858363858,-12.894749694749695,100.15921855921856,-0.19482421875,-1.9560546875,0.01513671875,-2.8533935546875,0.0762939453125,0.93841552734375,55.17753357753357,-62.97435897435897,48.88009768009768,-1.291015625,1.45849609375,0.57275390625,-1.0833740234375,0.96893310546875,1.91497802734375,-46.18119658119658,70.47130647130646,-70.17142857142856
45:33.019,0.3955078125,0.14697265625,2.0009765625,-1.15966796875,1.15203857421875,-0.14495849609375,42.58266178266178,-13.644444444444444,99.1096459096459,-0.193359375,-1.95751953125,0.0478515625,-4.85992431640625,-0.213623046875,0.6561279296875,54.27789987789988,-64.17387057387057,49.179975579975576,-1.29150390625,1.45263671875,0.58447265625,-0.77056884765625,0.99945068359375,1.922607421875,-47.53064713064713,70.32136752136752,-72.12063492063491
45:33.799,0.38525390625,0.15673828125,2.00634765625,-1.15966796875,1.15203857421875,-0.14495849609375,42.58266178266178,-13.644444444444444,99.1096459096459,-0.193359375,-1.95751953125,0.0478515625,-2.78472900390625,-0.091552734375,1.0528564453125,53.078388278388275,-62.074725274725274,50.52942612942613,-1.29150390625,1.45263671875,0.58447265625,-1.57928466796875,0.8544921875,1.42669677734375,-45.13162393162393,71.97069597069597,-70.62124542124542
45:34.579,0.40283203125,0.16357421875,1.9990234375,-1.21307373046875,1.18255615234375,-0.42724609375,41.683028083028084,-13.794383394383393,100.0092796092796,-0.19775390625,-1.9638671875,0.00048828125,-2.78472900390625,-0.091552734375,1.0528564453125,53.078388278388275,-62.074725274725274,50.52942612942613,-1.28271484375,1.45361328125,0.5498046875,-1.57928466796875,0.8544921875,1.42669677734375,-45.13162393162393,71.97069597069597,-70.62124542124542
45:35.359,0.39111328125,0.1591796875,2.013671875,-1.0986328125,0.96893310546875,-0.14495849609375,41.683028083028084,-14.843956043956043,99.25958485958486,-0.189453125,-1.9697265625,-0.0078125,-2.78472900390625,-0.518798828125,0.91552734375,54.727716727716725,-63.27423687423687,48.28034188034188,-1.2900390625,1.451171875,0.56640625,-0.77056884765625,0.79345703125,1.5716552734375,-46.63101343101343,71.22100122100122,-70.17142857142856
45:36.139,0.40234375,0.15966796875,2.00732421875,-1.21307373046875,1.68609619140625,-0.29754638671875,41.38315018315018,-12.744810744810744,99.25958485958486,-0.1982421875,-1.96630859375,0.05126953125,-1.80816650390625,-0.34332275390625,1.06048583984375,53.82808302808303,-63.873992673992674,48.43028083028083,-1.2861328125,1.45361328125,0.5693359375,-1.0833740234375,0.732421875,1.434326171875,-49.329914529914525,71.07106227106227,-71.07106227106227
45:36.919,0.40234375,0.15966796875,2.00732421875,-1.21307373046875,1.68609619140625,-0.29754638671875,41.533089133089135,-10.345787545787545,100.75897435897436,-0.16259765625,-1.95263671875,0.1171875,-0.45013427734375,2.84576416015625,-2.593994140625,53.52820512820512,-63.12429792429792,49.77973137973138,-1.29345703125,1.443359375,0.58056640625,-2.532958984375,1.28936767578125,0.91552734375,-45.88131868131868,70.47130647130646,-70.17142857142856
45:37.747,0.73583984375,-0.0341796875,2.06640625,4.96673583984375,-15.9912109375,-38.604736328125,41.533089133089135,-10.345787545787545,100.75897435897436,-0.16259765625,-1.95263671875,0.1171875,-2.5177001953125,-1.47247314453125,1.41143798828125,54.27789987789988,-62.82442002442002,52.32869352869353,-1.29345703125,1.443359375,0.58056640625,-2.532958984375,1.28936767578125,0.91552734375,-45.13162393162393,70.92112332112332,-69.12185592185592
45:38.529,0.419921875,0.11083984375,2.00732421875,-0.66375732421875,-0.83160400390625,0.23651123046875,78.86788766788767,2.399023199023199,71.82075702075701,-0.15087890625,-1.9658203125,0.0693359375,-2.5177001953125,-1.47247314453125,1.41143798828125,54.27789987789988,-62.82442002442002,52.32869352869353,-1.30517578125,1.4501953125,0.576171875,-0.70953369140625,0.579833984375,1.7242431640625,-45.13162393162393,70.92112332112332,-69.12185592185592
45:39.307,0.17236328125,0.1220703125,2.05810546875,-0.457763671875,9.71221923828125,0.335693359375,59.975579975579976,9.746031746031745,-43.18241758241758,-0.1640625,-1.96923828125,0.08837890625,-0.7171630859375,-2.3956298828125,1.861572265625,54.577777777777776,-65.37338217338217,52.32869352869353,-1.30029296875,1.4375,0.576171875,-0.19073486328125,0.5950927734375,1.77764892578125,-46.93089133089133,70.92112332112332,-70.92112332112332
45:40.087,0.31640625,0.10205078125,2.00927734375,0.19073486328125,-13.427734375,-2.532958984375,90.26324786324786,19.49206349206349,19.64200244200244,-0.17041015625,-1.9580078125,0.08349609375,-5.10406494140625,0.30517578125,1.3580322265625,54.27789987789988,-65.37338217338217,52.628571428571426,-1.29736328125,1.4453125,0.576171875,-0.23651123046875,0.6256103515625,2.0904541015625,-47.230769230769226,69.27179487179487,-72.12063492063491
45:40.916,0.31640625,0.10205078125,2.00927734375,0.19073486328125,-13.427734375,-2.532958984375,91.76263736263736,17.54285714285714,6.297435897435897,-0.16845703125,-1.947265625,0.09619140625,-1.9989013671875,0.4730224609375,0.89263916015625,53.52820512820512,-63.57411477411477,51.57899877899878,-1.30224609375,1.44482421875,0.5830078125,-0.9765625,0.51116943359375,1.5716552734375,-48.28034188034188,71.37094017094017,-70.47130647130646
45:41.696,0.4814453125,0.10498046875,2.00830078125,-1.739501953125,-0.5950927734375,-1.1138916015625,91.76263736263736,17.54285714285714,6.297435897435897,-0.16845703125,-1.947265625,0.09619140625,-1.9989013671875,0.4730224609375,0.89263916015625,55.62735042735043,-63.873992673992674,53.37826617826617,-1.30224609375,1.44482421875,0.5830078125,-0.9765625,0.51116943359375,1.5716552734375,-45.73137973137973,72.12063492063491,-70.02148962148962
