time,hand_accelerometer_x,hand_accelerometer_y,hand_accelerometer_z,hand_gyroscope_x,hand_gyroscope_y,hand_gyroscope_z,hand_magnetometer_x,hand_magnetometer_y,hand_magnetometer_z,ankle_accelerometer_x,ankle_accelerometer_y,ankle_accelerometer_z,ankle_gyroscope_x,ankle_gyroscope_y,ankle_gyroscope_z,ankle_magnetometer_x,ankle_magnetometer_y,ankle_magnetometer_z,chest_accelerometer_x,chest_accelerometer_y,chest_accelerometer_z,chest_gyroscope_x,chest_gyroscope_y,chest_gyroscope_z,chest_magnetometer_x,chest_magnetometer_y,chest_magnetometer_z
59:09.744,0.3583984375,1.94482421875,0.5673828125,-1.434326171875,7.59124755859375,-1.0833740234375,-40.78339438339438,12.594871794871795,-44.23199023199023,-0.1162109375,-1.8544921875,0.6396484375,-4.67681884765625,-4.1351318359375,1.5106201171875,51.72893772893773,-83.36605616605617,53.37826617826617,-0.16845703125,2.03466796875,-0.1787109375,-1.79290771484375,0.49591064453125,2.4261474609375,-51.87887667887668,30.887423687423688,40.18363858363858
59:10.572,0.3525390625,1.94140625,0.5849609375,-0.58746337890625,-0.11444091796875,-0.9307861328125,-42.88253968253968,12.894749694749695,-44.23199023199023,-0.10400390625,-1.85595703125,0.62158203125,-3.21197509765625,-0.67901611328125,0.87738037109375,50.07960927960928,-85.01538461538462,54.577777777777776,-0.15185546875,2.033203125,-0.17626953125,-2.95257568359375,1.09100341796875,2.8839111328125,-51.429059829059824,32.386813186813185,41.683028083028084
59:11.499,0.13427734375,2.3037109375,0.931640625,-45.3338623046875,-20.56121826171875,70.0531005859375,-42.28278388278388,13.344566544566543,-44.23199023199023,0.0029296875,-2.0244140625,0.556640625,9.98687744140625,51.90277099609375,-9.45281982421875,51.57899877899878,-84.26568986568986,54.877655677655675,-0.30029296875,1.9814453125,-0.40478515625,8.11767578125,-12.20703125,0.61798095703125,-52.02881562881563,30.737484737484735,40.78339438339438
59:12.376,0.13427734375,2.3037109375,0.931640625,-29.5867919921875,90.84320068359375,92.041015625,-34.485958485958484,22.49084249084249,-32.98656898656898,-0.07080078125,-1.7177734375,0.6044921875,-3.7384033203125,-44.4488525390625,32.379150390625,51.279120879120875,-89.21367521367522,54.727716727716725,3.435546875,3.03173828125,0.11279296875,-11.78741455078125,-63.568115234375,-44.708251953125,-36.73504273504273,29.388034188034187,57.72649572649573
59:13.595,0.732421875,1.79345703125,0.68798828125,10.16998291015625,-47.23358154296875,-44.86846923828125,-23.690354090354088,22.04102564102564,-8.546520146520146,-0.23876953125,-1.65673828125,0.42626953125,4.7149658203125,-31.02874755859375,-0.7171630859375,47.83052503052503,-96.26080586080586,65.82319902319902,-0.03271484375,2.0166015625,0.0576171875,-57.43408203125,119.232177734375,175.57525634765625,-57.57655677655677,32.686691086691084,41.23321123321123
59:14.570,0.80078125,2.005859375,0.08837890625,30.26580810546875,110.2142333984375,50.22430419921875,-35.985347985347985,26.98901098901099,-30.437606837606836,-0.74462890625,-1.826171875,0.52783203125,-14.129638671875,-111.04583740234375,54.74853515625,55.17753357753357,-90.11330891330891,70.32136752136752,-0.24658203125,2.072265625,-0.2998046875,-27.069091796875,6.6375732421875,-9.43756103515625,-38.38437118437118,53.82808302808303,50.52942612942613
59:15.399,0.80078125,2.005859375,0.08837890625,1.8310546875,55.5267333984375,37.98675537109375,-53.82808302808303,-10.195848595848595,-28.188522588522588,-0.08203125,-1.810546875,0.62548828125,-7.48443603515625,-51.85699462890625,30.1361083984375,56.227106227106226,-74.36971916971916,83.06617826617827,0.10791015625,1.91259765625,-0.33349609375,-1.6021728515625,-45.59326171875,-44.83795166015625,-68.37216117216117,47.230769230769226,-47.08083028083028
59:16.227,0.5634765625,1.78125,0.646484375,1.8310546875,55.5267333984375,37.98675537109375,-53.82808302808303,-10.195848595848595,-28.188522588522588,-0.16259765625,-1.8427734375,0.6181640625,-0.5340576171875,25.054931640625,-22.68218994140625,47.53064713064713,-78.41807081807082,88.6139194139194,-0.8271484375,3.0361328125,-0.1259765625,0.0762939453125,66.55120849609375,194.52667236328125,-45.13162393162393,4.947985347985348,-21.44126984126984
59:17.251,0.517578125,1.921875,0.55419921875,-1.4801025390625,-149.77264404296875,-54.8858642578125,-40.33357753357753,-7.946764346764346,-31.487179487179485,-0.326171875,-1.951171875,0.86376953125,10.6201171875,67.20733642578125,-38.79547119140625,39.733821733821735,-77.36849816849816,82.46642246642246,0.7021484375,0.37109375,0.08837890625,49.72076416015625,-201.72882080078125,88.165283203125,-28.188522588522588,6.747252747252747,-10.195848595848595
59:18.080,0.32568359375,2.2236328125,0.48388671875,29.22821044921875,-88.46282958984375,-105.743408203125,-40.33357753357753,-7.946764346764346,-31.487179487179485,-0.326171875,-1.951171875,0.86376953125,9.246826171875,98.358154296875,-44.65484619140625,38.98412698412698,-76.31892551892551,81.86666666666666,0.7021484375,0.37109375,0.08837890625,-25.299072265625,-38.59710693359375,-4.37164306640625,-37.934554334554335,32.08693528693529,-1.799267399267399
59:18.957,0.14404296875,1.90185546875,0.5458984375,-56.396484375,-83.7554931640625,-51.41448974609375,-26.389255189255188,-15.893528693528692,-9.446153846153846,-0.29541015625,-1.7138671875,0.59130859375,9.246826171875,98.358154296875,-44.65484619140625,40.63345543345543,-71.37094017094017,70.77118437118438,-0.07080078125,1.97900390625,-0.5546875,-25.299072265625,-38.59710693359375,-4.37164306640625,-70.32136752136752,37.784615384615385,-10.045909645909646
59:19.786,0.4072265625,1.8857421875,1.1474609375,-29.10614013671875,14.34326171875,61.95831298828125,-35.985347985347985,-15.443711843711844,-34.485958485958484,0.111328125,-1.826171875,0.7392578125,10.33782958984375,24.19281005859375,1.60980224609375,40.63345543345543,-71.37094017094017,70.77118437118438,0.1767578125,2.083984375,-0.42431640625,29.60968017578125,-31.60858154296875,-5.88226318359375,-78.86788766788767,22.49084249084249,15.743589743589743
59:20.956,0.810546875,1.82861328125,0.72216796875,-12.1307373046875,-63.8580322265625,5.69915771484375,-30.887423687423688,26.08937728937729,-23.84029304029304,-0.35888671875,-1.69921875,0.47119140625,16.01409912109375,-12.5579833984375,-6.14166259765625,49.479853479853475,-96.56068376068376,64.62368742368741,0.03515625,1.4794921875,-0.03515625,-15.28167724609375,31.5704345703125,177.39105224609375,-45.73137973137973,27.288888888888888,45.88131868131868
59:21.882,0.884765625,1.9609375,0.32470703125,-37.66632080078125,11.3372802734375,70.709228515625,-28.93821733821734,24.44004884004884,-17.093040293040293,-0.4892578125,-1.7353515625,0.54541015625,-8.72039794921875,-37.04071044921875,10.39886474609375,49.479853479853475,-96.56068376068376,64.62368742368741,-0.29541015625,2.14208984375,-0.45947265625,-18.6767578125,-24.89471435546875,-60.35614013671875,-33.73626373626374,38.084493284493284,62.52454212454212
59:22.906,0.55859375,2.36669921875,0.548828125,-27.04620361328125,50.5828857421875,62.286376953125,-26.539194139194137,22.04102564102564,-16.49328449328449,-0.259765625,-2.3349609375,0.88720703125,-4.5623779296875,-20.721435546875,23.8189697265625,49.62979242979243,-92.2124542124542,60.57533577533577,0.0908203125,2.10791015625,-0.52734375,6.8817138671875,-31.08978271484375,-40.94696044921875,-33.73626373626374,38.084493284493284,62.52454212454212
59:23.735,0.76025390625,1.76708984375,0.66162109375,-17.58575439453125,82.86285400390625,57.43408203125,-38.98412698412698,21.44126984126984,-31.936996336996337,-0.26611328125,-1.5791015625,0.6552734375,-9.58251953125,-90.0726318359375,47.0123291015625,54.577777777777776,-88.0141636141636,64.92356532356533,-1.2919921875,1.40625,-2.08837890625,-41.046142578125,249.99237060546875,-4.20379638671875,-58.176312576312576,43.03247863247863,31.637118437118435
59:24.564,0.4775390625,1.76123046875,0.39599609375,-15.58685302734375,21.4080810546875,53.97796630859375,-54.427838827838826,22.34090354090354,-46.48107448107448,-0.609375,-1.71240234375,0.693359375,-0.83160400390625,-44.1436767578125,4.67681884765625,63.27423687423687,-87.26446886446887,82.16654456654456,-0.8173828125,1.92919921875,-0.56103515625,-71.09832763671875,114.4256591796875,-74.6002197265625,-95.36117216117216,47.68058608058608,-51.72893772893773
59:25.392,0.4248046875,2.34619140625,0.34619140625,-51.62811279296875,90.11077880859375,84.1522216796875,-38.83418803418803,-21.14139194139194,-6.897191697191697,-0.3271484375,-2.01123046875,0.48046875,6.28662109375,-27.2216796875,11.41357421875,56.97680097680097,-75.41929181929181,94.91135531135531,-0.26513671875,2.03759765625,-0.5205078125,-9.33074951171875,-21.4691162109375,-36.7584228515625,-98.95970695970695,49.92967032967033,-51.72893772893773
59:26.270,0.4248046875,2.34619140625,0.34619140625,-51.62811279296875,90.11077880859375,84.1522216796875,-27.88864468864469,-13.644444444444444,4.648107448107448,0.13916015625,-1.59228515625,0.57763671875,3.39508056640625,-0.46539306640625,22.27020263671875,47.230769230769226,-80.51721611721611,95.66105006105006,-0.0087890625,1.9033203125,-0.67431640625,-2.55584716796875,-41.99981689453125,-52.5054931640625,-54.427838827838826,1.9492063492063492,-23.690354090354088
59:27.245,0.431640625,2.27099609375,1.0869140625,-41.75567626953125,42.8314208984375,91.63665771484375,-33.73626373626374,-11.995115995115995,-26.539194139194137,-0.154296875,-2.4033203125,0.73486328125,-33.7371826171875,-3.39508056640625,-7.9345703125,40.033699633699634,-79.31770451770451,83.21611721611721,-0.59619140625,2.572265625,-0.875,-12.908935546875,73.42529296875,197.0367431640625,-26.83907203907204,7.496947496947497,-10.195848595848595
59:28.074,0.67431640625,2.19189453125,1.15478515625,-50.10223388671875,15.35797119140625,95.1385498046875,-33.73626373626374,-11.995115995115995,-26.539194139194137,-0.154296875,-2.4033203125,0.73486328125,0.8087158203125,54.74853515625,-34.271240234375,42.28278388278388,-73.47008547008546,77.21855921855922,-0.59619140625,2.572265625,-0.875,-15.2130126953125,-47.119140625,-31.4788818359375,-44.83174603174603,22.34090354090354,-9.146275946275946
59:29.049,0.5361328125,2.1650390625,0.38134765625,-99.63226318359375,-106.475830078125,93.66607666015625,-42.28278388278388,-1.6493284493284492,-48.58021978021978,-0.369140625,-1.888671875,0.279296875,15.41900634765625,99.35760498046875,-31.097412109375,36.435164835164834,-73.76996336996336,80.36727716727717,-0.44287109375,1.96484375,-0.5048828125,11.3525390625,48.614501953125,-41.6412353515625,-68.67203907203907,35.08571428571428,-25.93943833943834
59:29.877,0.7001953125,2.00244140625,1.17041015625,18.76068115234375,-141.41845703125,-35.05706787109375,-32.536752136752135,-11.845177045177044,-20.841514041514042,-0.06787109375,-1.68896484375,0.73291015625,15.41900634765625,99.35760498046875,-31.097412109375,45.28156288156288,-81.71672771672772,48.58021978021978,-0.150390625,2.2939453125,-0.23095703125,11.3525390625,48.614501953125,-41.6412353515625,-83.96581196581197,30.437606837606836,13.344566544566543
59:30.852,0.76904296875,2.79833984375,0.38818359375,24.4598388671875,-144.47784423828125,-120.0714111328125,-35.985347985347985,18.742368742368743,-48.88009768009768,-0.45849609375,-2.4130859375,0.81201171875,24.58953857421875,57.098388671875,-17.03643798828125,45.28156288156288,-81.71672771672772,48.58021978021978,0.39794921875,0.99365234375,0.30908203125,21.27838134765625,-118.46923828125,119.8577880859375,-83.96581196581197,30.437606837606836,13.344566544566543
59:31.730,0.63916015625,1.83251953125,0.44580078125,39.28375244140625,-46.32568359375,-69.7021484375,-32.98656898656898,21.14139194139194,-27.13894993894994,-0.5380859375,-1.60302734375,0.55859375,-9.45281982421875,-7.28607177734375,4.5318603515625,49.479853479853475,-93.26202686202686,54.427838827838826,-0.27294921875,2.27783203125,-0.28564453125,-24.7802734375,-2.58636474609375,-70.54901123046875,-49.479853479853475,35.38559218559219,42.58266178266178
59:32.559,0.4453125,2.20263671875,0.67138671875,54.26025390625,3.936767578125,-58.47930908203125,-29.388034188034187,18.44249084249084,-12.744810744810744,-0.0712890625,-1.990234375,0.80078125,-14.7552490234375,-3.82232666015625,20.2178955078125,50.52942612942613,-94.31159951159951,63.12429792429792,0.048828125,2.04541015625,-0.60400390625,7.13348388671875,-15.23590087890625,-44.43359375,-29.83785103785104,31.187301587301587,69.57167277167277
59:33.485,0.6748046875,1.72607421875,0.818359375,15.64788818359375,-7.965087890625,-18.0206298828125,-37.03492063492063,24.14017094017094,-29.388034188034187,-0.271484375,-1.61279296875,0.6435546875,-6.21795654296875,-57.281494140625,32.958984375,54.27789987789988,-90.26324786324786,61.774847374847376,-1.283203125,1.69580078125,-2.20068359375,-84.6710205078125,249.99237060546875,10.162353515625,-60.57533577533577,41.683028083028084,31.936996336996337
59:34.460,0.5556640625,2.169921875,0.328125,1.64031982421875,99.86114501953125,105.89599609375,-53.37826617826617,25.18974358974359,-43.33235653235653,-0.62548828125,-1.7802734375,0.5107421875,-24.3988037109375,-91.91131591796875,18.8751220703125,62.67448107448107,-87.86422466422466,84.86544566544566,-0.03369140625,2.61279296875,-0.1669921875,-71.93756103515625,-1.16729736328125,-53.7109375,-84.11575091575091,54.577777777777776,-26.23931623931624
59:35.289,0.5556640625,2.169921875,0.328125,1.64031982421875,99.86114501953125,105.89599609375,-55.77728937728938,-16.793162393162394,-23.54041514041514,-0.359375,-2.048828125,0.56298828125,11.9781494140625,-22.5067138671875,24.59716796875,62.97435897435897,-74.51965811965812,94.76141636141635,-0.1171875,1.8984375,-0.4951171875,-10.955810546875,-13.32855224609375,-43.27392578125,-88.76385836385836,52.47863247863248,-37.784615384615385
59:36.117,0.43798828125,2.42333984375,0.5380859375,-21.881103515625,47.03521728515625,62.5457763671875,-55.77728937728938,-16.793162393162394,-23.54041514041514,-0.359375,-2.048828125,0.56298828125,-0.96893310546875,40.4510498046875,-3.60870361328125,49.92967032967033,-76.76874236874237,90.56312576312575,-0.1171875,1.8984375,-0.4951171875,-38.15460205078125,18.8751220703125,-64.361572265625,-63.724053724053725,-1.3494505494505493,-34.485958485958484
59:36.946,0.421875,1.7890625,0.85595703125,7.24029541015625,-7.293701171875,13.92364501953125,-44.08205128205128,-10.045909645909646,-17.39291819291819,-0.013671875,-1.80908203125,0.69580078125,-0.96893310546875,40.4510498046875,-3.60870361328125,45.28156288156288,-76.16898656898657,78.86788766788767,0.2373046875,2.4521484375,0.1376953125,-38.15460205078125,18.8751220703125,-64.361572265625,-35.835409035409036,19.042246642246642,-24.88986568986569
59:37.824,0.6318359375,1.53369140625,0.63427734375,-0.40435791015625,-80.1544189453125,-71.3043212890625,-43.78217338217338,-5.697680097680098,-38.53431013431013,0.21240234375,-1.43994140625,0.41796875,-1.57928466796875,14.44244384765625,-23.24676513671875,45.28156288156288,-76.16898656898657,78.86788766788767,-0.42431640625,2.166015625,-0.40625,31.07452392578125,84.05303955078125,164.83306884765625,-35.835409035409036,19.042246642246642,-24.88986568986569
59:38.653,0.3076171875,1.7158203125,0.5859375,-32.93609619140625,-37.689208984375,-28.96881103515625,-43.63223443223443,-1.3494505494505493,-45.88131868131868,-0.14111328125,-1.64208984375,0.7158203125,-1.12152099609375,64.58282470703125,-39.24560546875,43.18241758241758,-74.66959706959706,77.06862026862026,-0.2060546875,2.20361328125,-0.4638671875,-30.853271484375,-34.5916748046875,-36.01837158203125,-36.135286935286935,25.93943833943834,-11.995115995115995
59:39.481,0.20751953125,1.80615234375,0.9482421875,-15.045166015625,-70.6634521484375,17.974853515625,-25.33968253968254,-17.692796092796094,-11.545299145299145,0.12255859375,-1.8125,0.7197265625,13.6871337890625,54.03900146484375,-7.63702392578125,36.73504273504273,-75.11941391941392,82.61636141636141,0.1005859375,2.1162109375,-0.4072265625,18.4478759765625,-24.9481201171875,-21.6064453125,-45.13162393162393,33.88620268620269,5.847619047619047
59:40.554,0.57470703125,1.63037109375,0.53564453125,-8.46099853515625,-140.9149169921875,-63.4918212890625,-32.836630036630034,23.39047619047619,-40.93333333333333,0.1474609375,-1.3740234375,0.4658203125,3.8909912109375,59.14306640625,-45.75347900390625,51.87887667887668,-84.26568986568986,51.72893772893773,-0.6474609375,2.56005859375,0.2470703125,-6.88934326171875,41.3665771484375,195.65582275390625,-76.01904761904761,30.887423687423688,16.793162393162394
59:41.577,0.5517578125,1.96630859375,0.435546875,62.44659423828125,-9.307861328125,-80.8563232421875,-31.787057387057384,23.84029304029304,-23.24053724053724,-0.33349609375,-1.7041015625,0.39599609375,-14.7552490234375,17.8680419921875,8.6517333984375,50.979242979242976,-94.61147741147741,59.975579975579976,-0.37744140625,2.412109375,-0.373046875,-22.3236083984375,-5.60760498046875,-77.24761962890625,-41.23321123321123,24.589987789987788,55.77728937728938
59:42.699,0.3251953125,2.18359375,0.4248046875,74.127197265625,-8.72802734375,-73.18878173828125,-32.98656898656898,17.242979242979242,-20.39169719169719,-0.38818359375,-2.1455078125,0.8349609375,-8.49151611328125,-22.9034423828125,34.1339111328125,49.179975579975576,-94.61147741147741,54.727716727716725,-0.0712890625,2.0263671875,-0.4228515625,10.8642578125,-14.5111083984375,-39.28375244140625,-34.485958485958484,28.638339438339436,70.32136752136752
59:43.722,0.89306640625,2.22802734375,0.8623046875,22.57537841796875,10.711669921875,-40.0848388671875,-43.63223443223443,16.49328449328449,-28.93821733821734,-0.19287109375,-1.98876953125,0.3701171875,-14.77813720703125,-101.23443603515625,49.90386962890625,56.07716727716728,-89.21367521367522,63.873992673992674,-0.427734375,2.05908203125,-1.60107421875,-147.5067138671875,249.99237060546875,5.59234619140625,-59.975579975579976,46.33113553113553,25.03980463980464
59:44.600,0.552734375,2.25341796875,0.72412109375,57.8460693359375,157.18841552734375,47.8057861328125,-55.92722832722833,21.89108669108669,-53.37826617826617,-0.4453125,-1.8720703125,0.51513671875,-16.25823974609375,-61.1419677734375,15.55633544921875,61.624908424908426,-87.11452991452991,78.86788766788767,-0.14892578125,2.12939453125,-0.2763671875,-39.14642333984375,-8.331298828125,-12.26806640625,-87.56434676434677,55.17753357753357,-45.28156288156288
59:45.526,0.40283203125,2.0947265625,0.603515625,-28.900146484375,49.91912841796875,62.27874755859375,-56.676923076923075,-14.094261294261294,-26.08937728937729,-0.10107421875,-1.90771484375,0.712890625,-10.87188720703125,-25.32196044921875,22.39227294921875,63.12429792429792,-76.91868131868132,90.41318681318681,0.12890625,2.01806640625,-0.5625,7.53021240234375,-13.48876953125,-43.3349609375,-109.9052503052503,34.485958485958484,-77.81831501831502
59:46.404,0.40283203125,2.0947265625,0.603515625,2.08282470703125,26.3519287109375,23.193359375,-54.577777777777776,-5.997557997557998,-29.238095238095237,0.04541015625,-2.04296875,0.47607421875,-9.88006591796875,17.8070068359375,-2.46429443359375,55.47741147741147,-78.41807081807082,90.11330891330891,-0.48095703125,2.611328125,-0.10400390625,64.453125,21.61407470703125,214.7674560546875,-62.52454212454212,-3.2986568986568985,-45.73137973137973
59:47.281,0.4873046875,1.90966796875,0.88623046875,2.08282470703125,26.3519287109375,23.193359375,-49.62979242979243,-1.3494505494505493,-35.38559218559219,-0.51904296875,-1.8662109375,0.4697265625,7.56072998046875,37.689208984375,-22.8118896484375,44.98168498168498,-78.41807081807082,84.4156288156288,-0.103515625,2.65185546875,-0.46826171875,-31.4178466796875,-2.99072265625,-105.5450439453125,-53.078388278388275,13.644444444444444,-32.536752136752135
59:48.159,0.5146484375,2.064453125,0.46630859375,-35.62164306640625,-1.74713134765625,36.68975830078125,-49.62979242979243,-1.3494505494505493,-35.38559218559219,-0.17529296875,-2.03125,0.53369140625,10.13946533203125,-26.57318115234375,23.47564697265625,42.43272283272283,-72.87032967032967,74.21978021978022,0.04345703125,1.9072265625,-0.6142578125,-7.9193115234375,-18.2037353515625,-36.53717041015625,-49.62979242979243,24.29010989010989,-32.686691086691084
59:48.987,0.5830078125,2.3427734375,0.6513671875,-13.885498046875,35.2783203125,44.74639892578125,-43.93211233211233,-3.7484737484737485,-51.72893772893773,-0.17529296875,-2.03125,0.53369140625,10.13946533203125,-26.57318115234375,23.47564697265625,37.934554334554335,-73.47008547008546,79.76752136752137,0.04345703125,1.9072265625,-0.6142578125,-7.9193115234375,-18.2037353515625,-36.53717041015625,-59.37582417582417,28.638339438339436,-13.794383394383393
59:49.865,0.47900390625,1.72509765625,0.2998046875,23.7884521484375,-136.14654541015625,-47.576904296875,-41.98290598290598,-7.197069597069596,-45.431501831501826,0.11669921875,-1.7412109375,0.6298828125,2.593994140625,84.22088623046875,-38.87176513671875,37.934554334554335,-73.47008547008546,79.76752136752137,-0.37841796875,2.32666015625,-0.03466796875,31.1279296875,-122.6348876953125,70.281982421875,-59.37582417582417,28.638339438339436,-13.794383394383393
59:50.694,0.33837890625,1.7158203125,0.27001953125,8.941650390625,-104.80499267578125,-57.7239990234375,-42.73260073260073,3.4485958485958483,-48.13040293040293,-0.22900390625,-1.68115234375,0.62255859375,19.866943359375,121.11663818359375,-47.61505126953125,41.38315018315018,-72.87032967032967,66.12307692307692,0.39013671875,2.2607421875,0.1669921875,-3.7994384765625,-250.0,92.742919921875,-79.46764346764347,33.28644688644688,-39.583882783882785
59:51.572,0.40625,1.74365234375,0.388671875,0.946044921875,15.380859375,32.6690673828125,-42.88253968253968,4.798046398046398,-35.38559218559219,-0.44091796875,-1.83984375,0.42724609375,-17.486572265625,9.17816162109375,1.64794921875,47.230769230769226,-81.71672771672772,54.877655677655675,-0.1123046875,1.93408203125,-0.59814453125,2.81524658203125,-15.106201171875,-26.9012451171875,-83.36605616605617,42.58266178266178,-12.594871794871795
59:52.449,0.01806640625,1.701171875,0.39697265625,0.2593994140625,-15.37322998046875,-8.32366943359375,-38.83418803418803,9.596092796092796,-19.791941391941393,-0.13427734375,-1.8271484375,0.68603515625,1.1749267578125,-17.52471923828125,13.72528076171875,49.329914529914525,-89.66349206349206,54.27789987789988,-0.0498046875,2.15087890625,-0.91650390625,52.520751953125,-32.58514404296875,-79.84161376953125,-92.2124542124542,39.583882783882785,9.146275946275946
59:53.375,0.01806640625,1.701171875,0.39697265625,65.89508056640625,-34.5916748046875,-142.64678955078125,-32.686691086691084,11.845177045177044,-11.095482295482295,-0.05322265625,-1.734375,0.3369140625,-0.2288818359375,-39.36767578125,11.444091796875,50.829304029304026,-94.46153846153845,60.57533577533577,-0.33740234375,1.572265625,-0.375,0.18310546875,71.23565673828125,200.56915283203125,-31.936996336996337,27.288888888888888,54.577777777777776
59:54.204,0.41162109375,2.0419921875,0.72802734375,65.89508056640625,-34.5916748046875,-142.64678955078125,-32.686691086691084,11.845177045177044,-11.095482295482295,-0.24169921875,-1.71240234375,0.5986328125,-1.77001953125,34.70611572265625,-18.12744140625,49.329914529914525,-93.71184371184371,63.42417582417582,-0.2607421875,2.69287109375,-0.23291015625,-28.076171875,-23.52142333984375,-91.2933349609375,-39.883760683760684,44.68180708180708,59.07594627594627
59:55.081,0.37353515625,1.60986328125,0.44921875,18.50128173828125,20.355224609375,-28.900146484375,-32.536752136752135,19.49206349206349,-13.344566544566543,-0.24169921875,-1.71240234375,0.5986328125,-25.85601806640625,-93.84918212890625,38.24615478515625,57.42661782661782,-90.56312576312575,72.27057387057387,-0.2607421875,2.69287109375,-0.23291015625,-6.08062744140625,8.026123046875,-36.7279052734375,-47.83052503052503,47.230769230769226,50.07960927960928
59:56.007,0.5146484375,1.92138671875,0.4599609375,9.11712646484375,103.2867431640625,20.75958251953125,-49.62979242979243,4.798046398046398,-27.13894993894994,-0.57177734375,-1.99365234375,0.47705078125,-25.85601806640625,-93.84918212890625,38.24615478515625,69.12185592185592,-80.36727716727717,89.51355311355312,-0.1591796875,2.0458984375,-0.30224609375,-6.08062744140625,8.026123046875,-36.7279052734375,-85.46520146520146,58.326251526251525,-11.695238095238095
59:56.836,0.04248046875,1.87060546875,0.83056640625,11.29913330078125,23.0255126953125,-5.523681640625,-66.87277167277168,-4.498168498168498,-43.18241758241758,-0.12109375,-1.974609375,0.65380859375,-9.25445556640625,-44.30389404296875,10.68115234375,69.12185592185592,-80.36727716727717,89.51355311355312,0.23681640625,1.8095703125,-1.51904296875,-26.123046875,249.99237060546875,47.11151123046875,-85.46520146520146,58.326251526251525,-11.695238095238095
59:57.762,0.3251953125,1.59912109375,0.3017578125,-10.13946533203125,42.71697998046875,49.3621826171875,-46.63101343101343,-17.54285714285714,-8.996336996336996,-0.27099609375,-1.75390625,0.6611328125,-17.0135498046875,-0.091552734375,-7.9803466796875,64.02393162393162,-79.61758241758241,96.56068376068376,-0.064453125,2.8291015625,-0.37939453125,-43.5943603515625,-2.32696533203125,-109.16900634765625,-93.86178266178266,19.791941391941393,-74.81953601953602
59:58.689,0.060546875,2.34326171875,0.31201171875,-64.88800048828125,0.55694580078125,65.61279296875,-17.842735042735043,-16.943101343101343,9.596092796092796,-0.45166015625,-1.6494140625,0.38818359375,0.99945068359375,-7.72857666015625,9.124755859375,46.78095238095238,-80.51721611721611,93.26202686202686,-0.1650390625,2.04736328125,-0.57373046875,-7.2479248046875,-19.34814453125,-33.8287353515625,-78.41807081807082,12.594871794871795,-43.78217338217338
59:59.615,0.24658203125,1.94970703125,1.05810546875,-21.5301513671875,12.21466064453125,45.06683349609375,-26.23931623931624,-15.443711843711844,-8.996336996336996,-0.1005859375,-1.7109375,0.9189453125,-2.593994140625,-9.6282958984375,13.5345458984375,36.73504273504273,-75.71916971916971,84.86544566544566,-0.21435546875,1.91552734375,-0.6328125,-11.71112060546875,1.93023681640625,-50.66680908203125,-39.28400488400488,11.695238095238095,-25.03980463980464
00:00.444,0.720703125,1.6552734375,0.470703125,-18.06640625,-57.45697021484375,-77.178955078125,-38.084493284493284,-8.546520146520146,-35.53553113553114,0.0517578125,-1.9404296875,0.77880859375,-1.10626220703125,72.5860595703125,-32.05108642578125,40.48351648351648,-75.26935286935287,80.36727716727717,-0.16064453125,2.64990234375,0.4033203125,-31.51702880859375,-63.96484375,138.05389404296875,-54.727716727716725,30.437606837606836,-8.996336996336996
00:01.272,0.720703125,1.6552734375,0.470703125,-18.06640625,-57.45697021484375,-77.178955078125,-42.28278388278388,8.996336996336996,-28.93821733821734,-0.3701171875,-1.97998046875,0.63623046875,-1.12152099609375,35.247802734375,3.570556640625,46.48107448107448,-76.91868131868132,61.17509157509157,-0.2841796875,1.970703125,-0.54296875,13.3056640625,-27.7557373046875,-20.75958251953125,-76.16898656898657,33.88620268620269,11.395360195360196
00:02.247,0.4580078125,1.83349609375,0.45654296875,-39.51263427734375,58.8836669921875,89.019775390625,-38.68424908424908,7.946764346764346,-21.741147741147742,-0.02294921875,-1.787109375,0.71044921875,-0.29754638671875,-44.61669921875,24.078369140625,49.030036630036626,-87.56434676434677,54.27789987789988,0.345703125,2.09326171875,-0.3955078125,22.48382568359375,3.91387939453125,-54.0771484375,-74.21978021978022,33.43638583638584,17.242979242979242
00:03.369,0.35888671875,1.79150390625,0.67578125,-15.1214599609375,7.904052734375,35.5987548828125,-31.936996336996337,13.344566544566543,-10.795604395604395,0.021484375,-2.02099609375,0.70654296875,-4.11224365234375,-21.5606689453125,6.8511962890625,48.28034188034188,-94.91135531135531,60.125518925518925,-0.89892578125,3.19921875,-1.013671875,-18.92852783203125,224.35760498046875,209.9456787109375,-43.03247863247863,37.18485958485958,55.47741147741147
00:04.344,0.28076171875,2.275390625,0.82275390625,-69.87762451171875,-63.446044921875,-7.37762451171875,-30.887423687423688,25.03980463980464,-14.244200244200243,-0.34521484375,-1.85302734375,0.86328125,4.58526611328125,-3.0517578125,-14.007568359375,51.129181929181925,-96.26080586080586,67.62246642246642,0.818359375,1.0078125,-0.111328125,-63.2171630859375,-8.1329345703125,-14.71710205078125,-61.47496947496947,37.18485958485958,35.23565323565323
00:05.270,-0.1904296875,1.783203125,0.93408203125,-69.87762451171875,-63.446044921875,-7.37762451171875,-56.97680097680097,5.397802197802197,-34.635897435897434,-0.73583984375,-1.74365234375,0.46923828125,-11.0626220703125,-100.45623779296875,44.38018798828125,62.074725274725274,-87.56434676434677,74.96947496947497,-0.13671875,1.98974609375,-0.3076171875,-17.14324951171875,25.74920654296875,-8.56781005859375,-31.637118437118435,58.326251526251525,51.129181929181925
00:06.099,0.7001953125,1.9814453125,-0.05859375,-5.89752197265625,77.59857177734375,106.6436767578125,-56.97680097680097,5.397802197802197,-34.635897435897434,-0.73583984375,-1.74365234375,0.46923828125,-11.2152099609375,-26.23748779296875,22.45330810546875,64.77362637362637,-76.76874236874237,89.96336996336996,-0.13671875,1.98974609375,-0.3076171875,33.10394287109375,-0.12969970703125,-63.018798828125,-82.91623931623931,46.78095238095238,-56.07716727716728
00:06.927,0.68408203125,1.7705078125,1.0341796875,32.5775146484375,22.4151611328125,-58.64715576171875,-56.07716727716728,-2.249084249084249,2.998778998778999,0.0185546875,-1.7333984375,0.8212890625,-11.2152099609375,-26.23748779296875,22.45330810546875,64.77362637362637,-76.76874236874237,89.96336996336996,0.56201171875,2.3203125,-0.55517578125,33.10394287109375,-0.12969970703125,-63.018798828125,-82.91623931623931,46.78095238095238,-56.07716727716728
00:07.756,0.38330078125,1.7255859375,0.798828125,63.4307861328125,-81.5277099609375,-84.05303955078125,-58.326251526251525,-2.249084249084249,-29.388034188034187,0.0830078125,-1.61962890625,0.2626953125,-0.69427490234375,14.46533203125,-1.47247314453125,51.57899877899878,-79.01782661782661,93.56190476190476,-0.60205078125,2.126953125,-0.2744140625,37.04833984375,75.46234130859375,210.94512939453125,-58.026373626373626,-5.397802197802197,-34.78583638583638
00:08.731,0.501953125,1.76123046875,0.3642578125,26.71051025390625,-50.43792724609375,-67.64984130859375,-42.58266178266178,-8.396581196581197,-26.08937728937729,-0.44384765625,-1.73486328125,0.7373046875,-3.387451171875,52.8411865234375,-17.333984375,41.98290598290598,-77.06862026862026,86.36483516483516,0.2666015625,3.56201171875,-0.52294921875,-24.68109130859375,-106.57501220703125,-127.9296875,-61.17509157509157,13.494505494505495,-32.08693528693529
00:09.560,0.38720703125,2.1318359375,0.31884765625,46.59271240234375,54.51202392578125,-69.92340087890625,-22.34090354090354,-19.941880341880342,-7.646886446886446,-0.5029296875,-1.9560546875,0.5458984375,-12.14599609375,-41.534423828125,17.7459716796875,38.084493284493284,-75.41929181929181,84.86544566544566,-0.1298828125,2.10986328125,-0.38427734375,-6.2713623046875,-8.6822509765625,-37.08648681640625,-41.98290598290598,19.042246642246642,-25.489621489621488
00:10.535,0.69091796875,2.08056640625,0.38623046875,28.3050537109375,164.276123046875,87.8753662109375,-29.238095238095237,-13.044688644688645,-7.347008547008547,-0.19287109375,-1.861328125,0.5400390625,-27.618408203125,-160.46905517578125,81.72607421875,35.38559218559219,-80.66715506715506,89.96336996336996,-0.18505859375,2.07958984375,-0.45849609375,14.6636962890625,27.29034423828125,12.7105712890625,-62.82442002442002,21.29133089133089,-17.842735042735043
00:11.461,0.4970703125,2.16650390625,0.580078125,21.453857421875,-85.21270751953125,-97.32818603515625,-14.394139194139193,13.644444444444444,17.842735042735043,-0.52734375,-1.7265625,0.7470703125,15.31982421875,53.27606201171875,-28.1829833984375,39.583882783882785,-100.0092796092796,77.36849816849816,1.35498046875,0.83837890625,-0.69873046875,-26.67999267578125,81.787109375,-10.955810546875,-59.825641025641026,26.539194139194137,75.86910866910867
00:12.339,0.4970703125,2.16650390625,0.580078125,-45.0286865234375,-32.5927734375,53.41339111328125,-30.737484737484735,22.04102564102564,-26.689133089133087,-0.146484375,-1.6318359375,0.53369140625,-6.66046142578125,30.4718017578125,-24.261474609375,45.88131868131868,-91.76263736263736,53.67814407814408,-0.2607421875,2.01171875,-0.67919921875,-13.092041015625,-36.65924072265625,-44.769287109375,-39.433943833943836,42.28278388278388,82.01660561660562
00:13.265,0.24072265625,1.83251953125,0.4033203125,-20.39337158203125,28.62548828125,64.75830078125,-35.985347985347985,10.945543345543346,-17.093040293040293,-0.322265625,-2.5107421875,0.99755859375,-4.32586669921875,-30.4718017578125,27.91595458984375,49.62979242979243,-90.41318681318681,55.92722832722833,-0.03173828125,2.03173828125,-0.52734375,2.46429443359375,-22.92633056640625,-56.08367919921875,-46.63101343101343,22.34090354090354,41.08327228327228
00:14.240,0.37451171875,2.162109375,0.47509765625,-20.39337158203125,28.62548828125,64.75830078125,-36.88498168498168,16.193406593406593,-19.34212454212454,-0.0498046875,-1.751953125,0.75048828125,-13.13018798828125,-35.5072021484375,19.29473876953125,50.829304029304026,-94.16166056166055,62.67448107448107,-0.6796875,2.505859375,-0.47705078125,41.32843017578125,36.7889404296875,-68.33648681640625,-56.676923076923075,38.68424908424908,42.58266178266178
00:15.313,0.4453125,1.896484375,0.76025390625,-21.65985107421875,74.1119384765625,39.5355224609375,-44.38192918192918,24.29010989010989,-33.28644688644688,-0.2802734375,-1.896484375,0.61669921875,0.42724609375,-27.24456787109375,-7.63702392578125,58.77606837606837,-93.41196581196581,72.42051282051281,-0.4765625,1.9345703125,-0.8623046875,-167.83905029296875,249.99237060546875,47.027587890625,-66.12307692307692,46.63101343101343,29.987789987789988
00:16.434,0.41455078125,1.703125,0.42626953125,37.25433349609375,-0.885009765625,-54.45098876953125,-65.97313797313797,14.544078144078144,-61.02515262515262,-0.34619140625,-1.658203125,0.52880859375,-13.641357421875,-26.02386474609375,-10.16998291015625,64.32380952380952,-82.61636141636141,87.71428571428571,-0.1376953125,2.57958984375,-0.12939453125,-69.793701171875,-9.09423828125,-46.42486572265625,-68.82197802197803,67.02271062271062,-30.587545787545785
00:17.311,0.41455078125,1.703125,0.42626953125,37.25433349609375,-0.885009765625,-54.45098876953125,-40.63345543345543,-17.093040293040293,5.097924297924298,-0.20751953125,-2.1904296875,0.41650390625,-1.96075439453125,-27.80914306640625,35.46142578125,60.72527472527472,-74.51965811965812,93.71184371184371,-0.12158203125,1.89599609375,-0.560546875,-1.6326904296875,-21.64459228515625,-29.388427734375,-108.25592185592186,41.533089133089135,-66.72283272283272
00:18.188,0.44287109375,2.6806640625,0.60693359375,59.173583984375,17.95196533203125,-89.50042724609375,-40.63345543345543,-17.093040293040293,5.097924297924298,0.19091796875,-1.7109375,0.56494140625,-18.91326904296875,24.80316162109375,5.8746337890625,49.030036630036626,-80.51721611721611,93.26202686202686,4.9111328125,1.767578125,-2.28662109375,23.06365966796875,12.03155517578125,19.256591796875,-54.877655677655675,-1.1995115995115995,-29.088156288156288
00:19.017,0.51513671875,1.65283203125,0.81005859375,22.3541259765625,-36.18621826171875,-19.06585693359375,-49.62979242979243,-7.796825396825397,-27.588766788766787,0.19091796875,-1.7109375,0.56494140625,14.44244384765625,6.6986083984375,-16.45660400390625,40.33357753357753,-77.96825396825396,85.46520146520146,4.9111328125,1.767578125,-2.28662109375,9.1705322265625,55.29022216796875,218.74237060546875,-30.137728937728937,4.498168498168498,-16.64322344322344
00:19.943,0.79296875,2.62744140625,0.6015625,55.023193359375,-164.0472412109375,-214.1571044921875,-44.53186813186813,-3.598534798534798,-40.93333333333333,-0.2607421875,-1.810546875,0.42578125,14.44244384765625,6.6986083984375,-16.45660400390625,38.234432234432234,-76.01904761904761,82.91623931623931,-0.27587890625,1.64404296875,-0.21484375,9.1705322265625,55.29022216796875,218.74237060546875,-42.58266178266178,23.39047619047619,-10.495726495726496
00:20.772,0.48681640625,1.822265625,0.41259765625,-28.31268310546875,-64.1937255859375,-105.24749755859375,-37.03492063492063,-12.894749694749695,-29.088156288156288,-0.19091796875,-1.7978515625,0.65087890625,3.34930419921875,121.54388427734375,-56.81610107421875,38.234432234432234,-76.01904761904761,82.91623931623931,-0.2626953125,2.20458984375,-0.49169921875,-31.47125244140625,-42.15240478515625,-37.68157958984375,-42.58266178266178,23.39047619047619,-10.495726495726496
00:21.650,0.57373046875,1.79833984375,1.16650390625,6.58416748046875,62.73651123046875,-18.0206298828125,-16.49328449328449,-15.893528693528692,5.247863247863248,-0.02392578125,-1.97509765625,0.6611328125,10.284423828125,35.24017333984375,2.87628173828125,37.934554334554335,-74.06984126984126,82.16654456654456,-0.234375,1.95703125,-0.517578125,27.008056640625,12.68768310546875,-33.37860107421875,-70.77118437118438,36.88498168498168,-23.09059829059829
00:22.528,0.5625,2.25537109375,0.69482421875,60.05096435546875,-22.216796875,-109.9853515625,-33.73626373626374,23.54041514041514,-35.08571428571428,-0.0302734375,-2.2880859375,0.49267578125,-24.7955322265625,89.19525146484375,-24.749755859375,47.53064713064713,-84.26568986568986,49.62979242979243,-0.75048828125,3.10498046875,-0.30615234375,-32.867431640625,57.53326416015625,233.70361328125,-84.26568986568986,34.485958485958484,7.496947496947497
00:23.502,0.306640625,2.21240234375,0.47216796875,53.62701416015625,-9.796142578125,-79.00238037109375,-34.336019536019535,21.29133089133089,-20.841514041514042,-0.64306640625,-2.15625,0.77490234375,-0.2593994140625,17.35687255859375,-19.59991455078125,51.129181929181925,-96.7106227106227,61.924786324786325,0.5576171875,0.7880859375,-0.40966796875,-21.728515625,44.952392578125,19.6380615234375,-37.784615384615385,21.14139194139194,56.227106227106226
00:24.429,0.3349609375,1.98291015625,0.4873046875,-11.13128662109375,-54.87823486328125,21.6064453125,-27.588766788766787,15.593650793650793,-4.798046398046398,-0.33251953125,-1.498046875,0.5869140625,-10.2386474609375,-7.32421875,-12.82501220703125,49.479853479853475,-96.1108669108669,62.82442002442002,-0.2666015625,2.08544921875,-0.46337890625,-10.6201171875,-21.4691162109375,-63.262939453125,-34.036141636141636,34.336019536019535,68.37216117216117
00:25.404,0.3349609375,1.98291015625,0.4873046875,-2.90679931640625,164.85595703125,87.83721923828125,-46.33113553113553,14.843956043956043,-38.234432234432234,-0.26611328125,-1.931640625,0.595703125,-28.1219482421875,-137.73345947265625,53.56597900390625,56.526984126984125,-87.86422466422466,68.67203907203907,-0.24072265625,2.0693359375,-0.34130859375,10.2691650390625,5.0201416015625,27.91595458984375,-49.329914529914525,45.73137973137973,43.78217338217338
00:26.281,0.41845703125,2.1552734375,0.28955078125,-2.90679931640625,164.85595703125,87.83721923828125,-61.924786324786325,-6.597313797313797,-44.23199023199023,0.0166015625,-1.77978515625,0.68994140625,-13.9923095703125,-24.200439453125,8.44573974609375,59.52576312576312,-77.66837606837606,83.06617826617827,-0.0888671875,1.9462890625,-0.548828125,25.4669189453125,125.1068115234375,132.36236572265625,-83.36605616605617,46.33113553113553,-66.42295482295482
00:27.158,0.16162109375,1.66064453125,0.61572265625,-14.36614990234375,-15.66314697265625,1.4495849609375,-61.924786324786325,-6.597313797313797,-44.23199023199023,-0.39599609375,-1.796875,0.71240234375,-11.55853271484375,6.85882568359375,-2.6702880859375,51.279120879120875,-78.56800976800976,92.66227106227106,-0.29345703125,2.53173828125,-0.2333984375,-44.342041015625,-21.17156982421875,-59.50164794921875,-85.16532356532356,20.54163614163614,-60.425396825396824
00:27.987,0.33203125,1.607421875,0.43359375,-8.85772705078125,0.72479248046875,35.888671875,-30.587545787545785,-15.143833943833943,7.946764346764346,-0.39599609375,-1.796875,0.71240234375,-11.55853271484375,6.85882568359375,-2.6702880859375,44.38192918192918,-77.81831501831502,92.06251526251526,-0.29345703125,2.53173828125,-0.2333984375,-6.70623779296875,-18.6614990234375,-35.24017333984375,-68.07228327228327,13.494505494505495,-38.68424908424908
00:28.962,1.1279296875,1.6025390625,1.0673828125,14.68658447265625,-28.67889404296875,42.19818115234375,-17.992673992673993,-17.54285714285714,10.795604395604395,-0.453125,-2.3837890625,0.9443359375,3.4637451171875,6.2713623046875,27.06146240234375,38.084493284493284,-77.66837606837606,83.06617826617827,-0.033203125,1.9462890625,-0.62060546875,-6.70623779296875,-18.6614990234375,-35.24017333984375,-35.68547008547009,10.645665445665445,-25.78949938949939
00:29.791,0.572265625,1.994140625,0.51806640625,-37.02545166015625,-131.95037841796875,-44.5709228515625,-11.995115995115995,-22.19096459096459,3.7484737484737485,-0.17333984375,-1.908203125,0.63720703125,-15.11383056640625,37.28485107421875,-30.1513671875,38.084493284493284,-77.66837606837606,83.06617826617827,-1.033203125,2.63232421875,-0.4619140625,76.53045654296875,-132.3699951171875,184.24224853515625,-35.68547008547009,10.645665445665445,-25.78949938949939
00:30.717,0.345703125,1.80615234375,0.26220703125,-30.57861328125,-165.5120849609375,-117.3095703125,-33.58632478632479,-12.894749694749695,-45.13162393162393,-0.01123046875,-1.900390625,0.37744140625,16.89910888671875,102.8594970703125,-47.454833984375,44.08205128205128,-72.72039072039071,75.86910866910867,0.25048828125,2.1318359375,0.3828125,3.37982177734375,-145.89691162109375,4.3182373046875,-46.18119658119658,32.536752136752135,-4.947985347985348
00:31.595,0.95556640625,1.64404296875,0.11962890625,-10.0860595703125,-3.15093994140625,37.0941162109375,-40.78339438339438,-8.096703296703296,-40.18363858363858,-0.3779296875,-1.90283203125,0.484375,-3.936767578125,36.32354736328125,4.21142578125,46.48107448107448,-74.66959706959706,58.026373626373626,-0.3076171875,2.03466796875,-0.54248046875,6.56890869140625,-28.81622314453125,-17.3187255859375,-67.32258852258852,35.53553113553114,16.49328449328449
00:32.521,0.357421875,2.30322265625,0.6845703125,20.68328857421875,62.64495849609375,21.78192138671875,-35.68547008547009,0.29987789987789987,-24.29010989010989,-0.103515625,-2.67431640625,0.80517578125,9.21630859375,-29.18243408203125,22.71270751953125,49.329914529914525,-87.56434676434677,52.17875457875458,0.06640625,2.0703125,-0.40966796875,4.24957275390625,-6.46209716796875,-44.53277587890625,-65.07350427350427,27.13894993894994,24.739926739926737
00:33.496,0.43798828125,1.712890625,0.64111328125,19.38629150390625,25.50506591796875,-9.46807861328125,-30.737484737484735,16.343345543345542,-10.345787545787545,0.115234375,-1.68212890625,0.64111328125,-5.859375,-23.30780029296875,15.07568359375,48.13040293040293,-96.56068376068376,59.975579975579976,-2.447265625,1.88134765625,-0.99755859375,8.72039794921875,-5.767822265625,-51.68914794921875,-41.23321123321123,36.135286935286935,54.727716727716725
00:34.471,0.45556640625,2.826171875,0.83154296875,72.36480712890625,-13.1988525390625,-124.9847412109375,-37.934554334554335,21.89108669108669,-28.188522588522588,-0.13427734375,-2.1982421875,0.7666015625,19.805908203125,-3.37982177734375,-22.59063720703125,53.078388278388275,-91.76263736263736,64.17387057387057,-0.13671875,1.55078125,0.12060546875,-76.324462890625,87.79144287109375,138.96942138671875,-72.12063492063491,37.03492063492063,19.64200244200244
00:35.397,0.45556640625,2.826171875,0.83154296875,24.33013916015625,110.4278564453125,87.82958984375,-58.77606837606837,12.894749694749695,-45.58144078144078,-0.65380859375,-1.75830078125,0.48486328125,-14.7857666015625,-99.18212890625,48.8433837890625,64.17387057387057,-90.86300366300365,80.96703296703296,-0.23681640625,2.02392578125,-0.33154296875,-24.57427978515625,7.476806640625,-5.10406494140625,-38.084493284493284,63.12429792429792,50.67936507936508
00:36.275,0.6181640625,1.9013671875,0.08935546875,24.33013916015625,110.4278564453125,87.82958984375,-64.47374847374847,0.14993894993894993,-19.042246642246642,0.03662109375,-1.833984375,0.6376953125,-13.17596435546875,-27.15301513671875,16.33453369140625,68.67203907203907,-79.31770451770451,93.71184371184371,0.58251953125,2.0361328125,-0.41162109375,33.54644775390625,15.625,-54.19158935546875,-95.810989010989,44.23199023199023,-61.02515262515262
00:37.153,0.35498046875,1.828125,0.82958984375,10.589599609375,34.85870361328125,-9.78851318359375,-64.47374847374847,0.14993894993894993,-19.042246642246642,0.21337890625,-1.79443359375,0.32470703125,20.69091796875,-4.4403076171875,-9.490966796875,56.227106227106226,-78.41807081807082,91.76263736263736,-0.61572265625,2.45556640625,-0.30517578125,49.90386962890625,76.84326171875,220.5963134765625,-76.31892551892551,-9.296214896214895,-50.52942612942613
00:37.981,1.17041015625,1.73779296875,1.2783203125,47.7142333984375,93.17779541015625,-72.66998291015625,-59.825641025641026,-3.1487179487179486,-32.98656898656898,0.21337890625,-1.79443359375,0.32470703125,20.69091796875,-4.4403076171875,-9.490966796875,45.58144078144078,-80.06739926739927,90.26324786324786,-0.61572265625,2.45556640625,-0.30517578125,49.90386962890625,76.84326171875,220.5963134765625,-62.67448107448107,13.494505494505495,-34.485958485958484
00:38.858,1.0751953125,1.86474609375,0.0751953125,29.68597412109375,45.59326171875,-84.35821533203125,-44.68180708180708,-3.4485958485958483,-26.539194139194137,-0.4677734375,-1.8369140625,0.51904296875,-2.0294189453125,67.07000732421875,-26.885986328125,45.58144078144078,-80.06739926739927,90.26324786324786,0.130859375,2.974609375,-0.677734375,-18.65386962890625,-24.04022216796875,-118.50738525390625,-62.67448107448107,13.494505494505495,-34.485958485958484
00:39.688,0.5625,2.1865234375,0.6943359375,32.4859619140625,-77.3468017578125,-85.82305908203125,-31.936996336996337,-14.094261294261294,-17.692796092796094,-0.25048828125,-1.8359375,0.26025390625,-6.011962890625,22.37701416015625,-4.96673583984375,40.33357753357753,-76.91868131868132,81.26691086691086,-0.0478515625,1.9716796875,-0.53369140625,-21.575927734375,-26.9775390625,-24.60479736328125,-51.129181929181925,18.142612942612942,-30.287667887667887
00:40.613,0.6953125,1.859375,0.33837890625,23.90289306640625,-161.32354736328125,-80.0628662109375,-40.93333333333333,-7.946764346764346,-34.78583638583638,0.197265625,-1.89404296875,0.54736328125,-6.8817138671875,90.3778076171875,-24.4598388671875,37.934554334554335,-74.06984126984126,79.76752136752137,0.103515625,1.79736328125,-0.7744140625,4.57000732421875,-170.98236083984375,27.9693603515625,-52.02881562881563,31.487179487179485,-4.947985347985348
00:41.442,0.3759765625,1.60888671875,0.43017578125,17.547607421875,-26.1077880859375,-54.0008544921875,-40.63345543345543,13.494505494505495,-32.08693528693529,-0.32666015625,-1.845703125,0.77392578125,2.51007080078125,78.5675048828125,-37.0635986328125,48.73015873015873,-79.31770451770451,52.928449328449325,-0.13232421875,2.5947265625,-0.47119140625,36.49139404296875,-54.931640625,-126.93023681640625,-63.57411477411477,23.84029304029304,28.93821733821734
00:42.368,0.3759765625,1.60888671875,0.43017578125,16.19720458984375,107.84912109375,54.20684814453125,-34.036141636141636,8.996336996336996,-11.845177045177044,-0.341796875,-2.15185546875,0.52392578125,3.48663330078125,-51.99432373046875,48.03466796875,49.479853479853475,-91.31282051282051,55.47741147741147,-0.1455078125,1.9951171875,-0.423828125,-17.95196533203125,-14.495849609375,-31.62384033203125,-50.829304029304026,32.686691086691084,33.58632478632479
00:43.295,0.6083984375,2.05908203125,0.3974609375,16.19720458984375,107.84912109375,54.20684814453125,-33.73626373626374,11.095482295482295,-10.195848595848595,0.0517578125,-1.78466796875,0.71630859375,-7.1563720703125,-41.77093505859375,34.66796875,49.479853479853475,-93.86178266178266,64.62368742368741,0.3330078125,1.75390625,-0.82470703125,19.989013671875,42.56439208984375,-54.5806884765625,-47.53064713064713,37.03492063492063,61.17509157509157
00:44.124,0.3017578125,2.03955078125,0.50390625,-73.95172119140625,-2.78472900390625,100.2960205078125,-33.73626373626374,11.095482295482295,-10.195848595848595,-0.09228515625,-1.6201171875,0.4169921875,2.40325927734375,-10.7269287109375,3.143310546875,54.727716727716725,-91.6126984126984,68.22222222222221,-1.0703125,2.66845703125,-0.68017578125,-133.85009765625,249.99237060546875,112.29705810546875,-73.32014652014652,43.03247863247863,18.142612942612942
00:45.098,0.60498046875,1.42919921875,0.794921875,-9.45281982421875,59.14306640625,28.38897705078125,-45.13162393162393,19.19218559218559,-24.88986568986569,-0.09228515625,-1.6201171875,0.4169921875,-27.54974365234375,-122.6806640625,52.51312255859375,65.67326007326007,-90.11330891330891,88.3140415140415,-1.0703125,2.66845703125,-0.68017578125,-26.4892578125,0.5340576171875,-8.76617431640625,-60.125518925518925,68.22222222222221,24.589987789987788
00:45.976,0.70751953125,1.93310546875,0.34228515625,-0.6561279296875,57.94525146484375,136.962890625,-56.07716727716728,21.29133089133089,-33.13650793650793,-0.5166015625,-1.84130859375,0.5224609375,-27.54974365234375,-122.6806640625,52.51312255859375,68.82197802197803,-79.01782661782661,99.55946275946276,-0.34912109375,2.04638671875,-0.251953125,-26.4892578125,0.5340576171875,-8.76617431640625,-91.46275946275946,47.230769230769226,-51.87887667887668
00:46.805,0.35205078125,2.3623046875,0.96337890625,-60.821533203125,112.95318603515625,111.9537353515625,-55.77728937728938,-19.941880341880342,-16.49328449328449,-0.0302734375,-1.78564453125,0.7080078125,-11.10076904296875,-65.94085693359375,44.31915283203125,68.82197802197803,-79.01782661782661,99.55946275946276,0.52880859375,2.07861328125,-0.439453125,16.9830322265625,-1.36566162109375,-43.731689453125,-91.46275946275946,47.230769230769226,-51.87887667887668
00:47.633,0.47705078125,1.85205078125,0.85205078125,-7.3394775390625,-33.966064453125,18.16558837890625,-53.078388278388275,-6.597313797313797,-18.59242979242979,-0.12841796875,-1.7470703125,0.57177734375,-1.28936767578125,10.1470947265625,4.29534912109375,56.826862026862024,-79.31770451770451,95.810989010989,-1.82763671875,2.857421875,-0.29833984375,24.8260498046875,-160.400390625,220.39031982421875,-74.96947496947497,-7.796825396825397,-49.179975579975576
00:48.511,0.509765625,2.06396484375,0.72998046875,60.3790283203125,-73.20404052734375,-140.73944091796875,-49.030036630036626,-4.648107448107448,-29.088156288156288,-0.49755859375,-2.08544921875,0.875,23.96392822265625,57.68585205078125,-32.38677978515625,45.88131868131868,-80.66715506715506,87.41440781440781,0.13427734375,0.55029296875,-0.16015625,23.9715576171875,-82.48138427734375,98.1292724609375,-41.683028083028084,2.6989010989010986,-22.94065934065934
00:49.340,0.509765625,2.06396484375,0.72998046875,-70.44219970703125,-70.9075927734375,49.9267578125,-28.488400488400487,-13.794383394383393,-9.146275946275946,-0.2275390625,-1.6201171875,0.599609375,14.16778564453125,83.892822265625,-53.00140380859375,39.733821733821735,-73.02026862026862,81.41684981684982,-0.07177734375,2.060546875,-0.52685546875,-24.02496337890625,-29.510498046875,-22.796630859375,-48.28034188034188,28.03858363858364,-23.99023199023199
00:50.169,0.2958984375,1.78076171875,0.5029296875,-70.44219970703125,-70.9075927734375,49.9267578125,-28.488400488400487,-13.794383394383393,-9.146275946275946,0.06201171875,-1.7763671875,0.7158203125,7.63702392578125,78.20892333984375,-8.87298583984375,36.73504273504273,-74.66959706959706,80.51721611721611,-0.3515625,2.08056640625,-0.1796875,22.4456787109375,72.62420654296875,-68.66455078125,-37.634676434676436,31.787057387057384,10.345787545787545
00:50.998,0.51025390625,1.84423828125,0.8935546875,63.5833740234375,-72.01385498046875,-88.2110595703125,-19.64200244200244,-20.24175824175824,-4.648107448107448,0.06201171875,-1.7763671875,0.7158203125,7.63702392578125,78.20892333984375,-8.87298583984375,48.73015873015873,-87.26446886446887,53.37826617826617,-0.3515625,2.08056640625,-0.1796875,22.4456787109375,72.62420654296875,-68.66455078125,-45.58144078144078,24.14017094017094,43.18241758241758
00:51.923,0.69384765625,2.626953125,0.599609375,49.67498779296875,-94.573974609375,-162.6434326171875,-35.985347985347985,19.49206349206349,-32.08693528693529,-0.44189453125,-2.2724609375,0.99462890625,15.2130126953125,35.003662109375,-21.23260498046875,49.179975579975576,-93.86178266178266,63.873992673992674,0.1357421875,0.93505859375,0.05029296875,-64.50653076171875,-34.9578857421875,113.51776123046875,-33.28644688644688,32.836630036630034,57.87643467643468
00:52.801,0.6474609375,1.544921875,0.275390625,9.01031494140625,-46.783447265625,-7.65228271484375,-31.637118437118435,16.793162393162394,-19.64200244200244,-0.25146484375,-1.53466796875,0.69677734375,-8.7890625,-7.2174072265625,1.46484375,49.179975579975576,-93.86178266178266,63.873992673992674,-0.40673828125,2.3017578125,-0.4794921875,-13.275146484375,-21.0723876953125,-64.26239013671875,-33.28644688644688,32.836630036630034,57.87643467643468
00:53.630,0.6982421875,2.54248046875,0.66259765625,-2.7008056640625,32.470703125,38.4979248046875,-42.58266178266178,8.996336996336996,-26.83907203907204,-0.21728515625,-2.3203125,0.9619140625,0.28228759765625,-50.0640869140625,24.72686767578125,52.928449328449325,-88.6139194139194,64.47374847374847,0.01025390625,2.06591796875,-0.4990234375,5.5694580078125,-13.5040283203125,-40.03143310546875,-50.37948717948718,43.482295482295484,45.13162393162393
00:54.507,0.71826171875,1.7138671875,0.59765625,-33.3251953125,95.43609619140625,57.24334716796875,-53.97802197802198,10.645665445665445,-31.037362637362637,-0.12744140625,-1.60693359375,0.69921875,-11.05499267578125,-80.7342529296875,41.412353515625,59.975579975579976,-88.76385836385836,75.86910866910867,-1.076171875,1.45068359375,-1.05419921875,6.06536865234375,30.853271484375,38.6505126953125,-70.62124542124542,43.482295482295484,33.28644688644688
00:55.385,0.71826171875,1.7138671875,0.59765625,24.14703369140625,-7.476806640625,-13.824462890625,-72.87032967032967,9.746031746031745,-56.826862026862024,-0.49658203125,-1.69482421875,0.7978515625,-3.83758544921875,-16.16668701171875,-2.7923583984375,68.82197802197803,-83.06617826617827,94.61147741147741,-2.0859375,2.388671875,-0.1611328125,-80.4901123046875,123.7335205078125,-98.6175537109375,-104.65738705738706,40.78339438339438,-39.583882783882785
00:56.214,0.4365234375,1.2216796875,0.40771484375,24.14703369140625,-7.476806640625,-13.824462890625,-72.87032967032967,9.746031746031745,-56.826862026862024,-0.3701171875,-2.0712890625,0.45556640625,-2.7923583984375,-37.9791259765625,26.79443359375,66.72283272283272,-82.31648351648352,103.75775335775336,-0.1904296875,2.001953125,-0.466796875,-9.368896484375,-26.1993408203125,-31.9061279296875,-100.3091575091575,52.02881562881563,-25.93943833943834
00:57.042,0.61572265625,2.24951171875,0.345703125,-20.172119140625,116.1041259765625,96.6644287109375,-38.084493284493284,-23.99023199023199,4.648107448107448,-0.3701171875,-2.0712890625,0.45556640625,-3.2806396484375,-29.60205078125,24.7802734375,49.92967032967033,-78.56800976800976,95.5111111111111,-0.1904296875,2.001953125,-0.466796875,0.67138671875,-29.41131591796875,-49.5758056640625,-74.06984126984126,0.29987789987789987,-48.28034188034188
00:57.920,0.41162109375,1.9248046875,0.59326171875,-60.85968017578125,33.63800048828125,126.0528564453125,-25.93943833943834,-15.143833943833943,4.798046398046398,-0.0400390625,-1.70556640625,0.80517578125,-3.2806396484375,-29.60205078125,24.7802734375,49.92967032967033,-78.56800976800976,95.5111111111111,0.04150390625,2.0478515625,-0.58740234375,0.67138671875,-29.41131591796875,-49.5758056640625,-74.06984126984126,0.29987789987789987,-48.28034188034188
00:58.748,0.60546875,2.146484375,0.74267578125,-18.88275146484375,67.40570068359375,75.86669921875,-31.337240537240536,-14.843956043956043,-12.444932844932845,-0.10400390625,-1.89404296875,0.609375,2.8533935546875,-10.76507568359375,9.2315673828125,39.13406593406593,-79.46764346764347,87.56434676434677,-1.546875,2.85107421875,-1.17578125,9.368896484375,105.15594482421875,201.8890380859375,-38.38437118437118,0.5997557997557997,-13.644444444444444
00:59.577,0.55322265625,2.4189453125,0.37158203125,-2.52532958984375,-151.7486572265625,-87.738037109375,-42.43272283272283,-5.097924297924298,-43.63223443223443,-0.3681640625,-2.22314453125,0.8642578125,25.634765625,49.041748046875,-18.61572265625,38.98412698412698,-76.76874236874237,82.16654456654456,0.19921875,0.68408203125,-0.400390625,50.04119873046875,-18.463134765625,96.832275390625,-45.28156288156288,18.142612942612942,-5.847619047619047
01:00.406,0.55322265625,2.4189453125,0.37158203125,-46.07391357421875,-115.01312255859375,5.89752197265625,-25.93943833943834,-10.645665445665445,-5.697680097680098,-0.0888671875,-1.6884765625,0.51416015625,8.453369140625,100.34942626953125,-50.97198486328125,34.635897435897434,-82.16654456654456,87.11452991452991,-0.1064453125,1.97021484375,-0.7529296875,-10.406494140625,-45.8526611328125,-9.7503662109375,-71.37094017094017,33.73626373626374,-25.33968253968254
01:01.381,0.37744140625,1.6767578125,0.396484375,-8.96453857421875,-15.92254638671875,45.93658447265625,-9.746031746031745,-17.39291819291819,1.4993894993894994,0.0751953125,-1.84326171875,0.7890625,13.5498046875,22.83477783203125,6.2255859375,32.386813186813185,-76.16898656898657,78.41807081807082,-0.23583984375,2.01904296875,-0.6142578125,20.33233642578125,-16.24298095703125,-20.34759521484375,-41.23321123321123,24.14017094017094,-43.78217338217338
01:02.258,0.69580078125,2.00048828125,1.18359375,-8.96453857421875,-15.92254638671875,45.93658447265625,-26.689133089133087,27.588766788766787,-32.236874236874236,-0.10595703125,-1.6875,0.66064453125,-3.22723388671875,28.4271240234375,-3.44085693359375,45.73137973137973,-83.06617826617827,48.28034188034188,-4.1826171875,1.984375,-1.4521484375,0.518798828125,2.29644775390625,104.278564453125,-73.17020757020757,57.27667887667887,17.842735042735043
01:03.185,0.63037109375,1.7646484375,0.6279296875,-16.2506103515625,-69.793701171875,18.61572265625,-26.689133089133087,27.588766788766787,-32.236874236874236,-0.37060546875,-2.3193359375,0.9521484375,13.98468017578125,23.68927001953125,-31.6162109375,50.22954822954823,-93.56190476190476,58.326251526251525,0.1630859375,1.06884765625,-0.29443359375,-47.21832275390625,68.2525634765625,127.98309326171875,-41.38315018315018,15.743589743589743,46.18119658119658
01:04.111,0.32470703125,3.23779296875,0.79248046875,68.19915771484375,-103.84368896484375,-120.50628662109375,-30.287667887667887,25.33968253968254,-22.04102564102564,-0.37060546875,-2.3193359375,0.9521484375,-13.13018798828125,-16.5252685546875,5.126953125,47.83052503052503,-96.26080586080586,65.82319902319902,-0.1884765625,2.6953125,-0.18994140625,-40.70281982421875,-7.659912109375,-91.63665771484375,-33.43638583638584,34.485958485958484,64.02393162393162
01:05.086,0.541015625,1.79052734375,0.30908203125,20.11871337890625,13.83209228515625,-8.07952880859375,-27.438827838827837,23.99023199023199,-20.99145299145299,-0.30615234375,-1.66015625,0.66162109375,-29.2205810546875,-117.73681640625,46.20361328125,52.628571428571426,-87.11452991452991,62.97435897435897,-0.1884765625,2.6953125,-0.18994140625,6.79779052734375,18.40972900390625,1.77001953125,-47.380708180708176,41.23321123321123,53.37826617826617
01:05.915,0.42236328125,2.25634765625,0.5224609375,-5.39398193359375,133.0413818359375,-1.15966796875,-45.73137973137973,11.545299145299145,-34.336019536019535,-0.4091796875,-1.89892578125,0.4638671875,-29.2205810546875,-117.73681640625,46.20361328125,52.628571428571426,-87.11452991452991,62.97435897435897,-0.30078125,2.08154296875,-0.29638671875,6.79779052734375,18.40972900390625,1.77001953125,-62.074725274725274,55.32747252747252,-22.34090354090354
01:06.792,0.39111328125,1.7783203125,0.78515625,62.17193603515625,56.67877197265625,-66.34521484375,-60.72527472527472,7.347008547008547,-51.57899877899878,-0.09423828125,-2.13671875,0.73974609375,-27.2216796875,-55.3436279296875,3.28826904296875,58.176312576312576,-80.36727716727717,76.91868131868132,-0.59765625,2.216796875,-1.078125,8.97979736328125,239.3951416015625,123.0010986328125,-62.074725274725274,55.32747252747252,-22.34090354090354
01:07.621,0.265625,1.43896484375,0.36083984375,-11.58905029296875,-18.5699462890625,-8.18634033203125,-34.635897435897434,-17.842735042735043,-7.646886446886446,-0.33935546875,-1.7978515625,0.72021484375,-0.22125244140625,35.33172607421875,-11.65771484375,52.17875457875458,-76.91868131868132,88.0141636141636,0.45849609375,2.625,-1.12451171875,12.603759765625,-76.934814453125,-141.9525146484375,-67.32258852258852,4.798046398046398,-41.08327228327228
01:08.499,0.50048828125,1.9365234375,0.435546875,-39.49737548828125,36.0870361328125,70.5413818359375,-11.395360195360196,-19.941880341880342,15.593650793650793,-0.47265625,-1.8330078125,0.6123046875,-18.9971923828125,12.45880126953125,11.16180419921875,40.78339438339438,-80.36727716727717,86.66471306471306,-0.07080078125,2.0390625,-0.515625,-9.62066650390625,-29.6630859375,-31.1431884765625,-61.924786324786325,22.49084249084249,-30.587545787545785
01:09.327,0.50048828125,1.9365234375,0.435546875,2.7618408203125,18.39447021484375,31.6009521484375,-21.44126984126984,-17.692796092796094,-4.648107448107448,-0.13720703125,-1.72216796875,0.796875,9.521484375,5.0201416015625,11.23046875,36.135286935286935,-75.56923076923077,85.31526251526252,-0.0283203125,1.8994140625,-0.6396484375,-7.99560546875,-27.94647216796875,-24.20806884765625,-26.539194139194137,17.093040293040293,-6.147496947496947
01:10.156,0.37939453125,1.81396484375,1.13623046875,2.7618408203125,18.39447021484375,31.6009521484375,-21.44126984126984,-17.692796092796094,-4.648107448107448,-0.04931640625,-1.74755859375,0.55712890625,1.41143798828125,73.08197021484375,-26.3824462890625,41.38315018315018,-74.66959706959706,66.87277167277168,0.2919921875,1.82421875,-0.43017578125,10.36834716796875,-141.693115234375,48.0804443359375,-70.02148962148962,34.635897435897434,-14.394139194139193
01:10.985,0.3681640625,2.2802734375,0.75244140625,48.95782470703125,-152.12249755859375,-93.58978271484375,-41.832967032967034,0.4498168498168498,-53.078388278388275,-0.04931640625,-1.74755859375,0.55712890625,1.41143798828125,73.08197021484375,-26.3824462890625,48.13040293040293,-82.16654456654456,50.52942612942613,0.2919921875,1.82421875,-0.43017578125,44.12078857421875,-52.78778076171875,-114.5477294921875,-74.51965811965812,28.638339438339436,18.29255189255189
01:12.058,0.3857421875,1.7880859375,0.55322265625,18.53179931640625,-8.46099853515625,-24.13177490234375,-36.88498168498168,21.14139194139194,-46.63101343101343,-0.2109375,-1.86962890625,0.525390625,-10.96343994140625,-50.51422119140625,32.75299072265625,51.279120879120875,-91.01294261294261,51.57899877899878,-0.21875,2.1005859375,-0.46923828125,2.5177001953125,1.953125,-35.4156494140625,-60.57533577533577,35.53553113553114,28.338461538461537
01:12.983,0.85986328125,2.16943359375,0.69287109375,-78.66668701171875,150.1007080078125,93.56689453125,-37.934554334554335,17.242979242979242,-27.13894993894994,-0.42724609375,-2.15673828125,0.28076171875,-10.96343994140625,-50.51422119140625,32.75299072265625,49.030036630036626,-92.66227106227106,52.47863247863248,-0.21875,2.1005859375,-0.46923828125,2.5177001953125,1.953125,-35.4156494140625,-30.887423687423688,34.186080586080585,63.27423687423687
01:13.861,0.36328125,2.11083984375,0.619140625,-60.882568359375,65.9027099609375,73.57025146484375,-32.536752136752135,18.142612942612942,-17.093040293040293,0.0224609375,-1.82470703125,0.650390625,-8.758544921875,-31.5093994140625,17.6239013671875,49.030036630036626,-92.66227106227106,52.47863247863248,0.220703125,1.939453125,-0.35009765625,24.08599853515625,-12.63427734375,-29.96063232421875,-56.227106227106226,44.68180708180708,25.18974358974359
01:14.787,0.916015625,1.658203125,0.75439453125,-22.94921875,21.4080810546875,22.19390869140625,-40.63345543345543,22.34090354090354,-37.18485958485958,-0.24169921875,-1.720703125,0.42041015625,-2.349853515625,-21.9879150390625,10.32257080078125,53.37826617826617,-87.11452991452991,58.77606837606837,-0.6435546875,2.37890625,-0.634765625,-171.79107666015625,249.99237060546875,121.19293212890625,-56.227106227106226,44.68180708180708,25.18974358974359
01:15.665,0.64892578125,2.08642578125,0.4501953125,62.53814697265625,99.14398193359375,-18.54705810546875,-52.628571428571426,23.09059829059829,-52.628571428571426,-0.57275390625,-1.94287109375,0.455078125,-15.3656005859375,-56.55670166015625,20.751953125,60.87521367521367,-86.81465201465201,74.96947496947497,-0.2587890625,2.00390625,-0.41064453125,-22.04132080078125,3.85284423828125,-12.6953125,-55.027594627594624,62.67448107448107,0.4498168498168498
01:16.542,0.50390625,1.8740234375,0.7275390625,4.82177734375,25.67291259765625,0.08392333984375,-62.52454212454212,-7.197069597069596,-38.53431013431013,-0.0966796875,-1.8056640625,0.6435546875,-7.4920654296875,-29.19769287109375,11.7034912109375,61.624908424908426,-75.41929181929181,87.26446886446887,0.17333984375,1.98779296875,-0.671875,25.604248046875,-14.5111083984375,-52.71148681640625,-84.86544566544566,44.08205128205128,-70.62124542124542
01:17.421,0.50390625,1.8740234375,0.7275390625,37.994384765625,-63.51470947265625,-91.30096435546875,-56.377045177045176,-2.6989010989010986,-34.036141636141636,0.2490234375,-1.91650390625,0.4052734375,5.16510009765625,15.95306396484375,-2.6702880859375,52.47863247863248,-77.36849816849816,89.51355311355312,-0.1748046875,1.951171875,0.123046875,77.239990234375,43.8995361328125,192.19207763671875,-60.72527472527472,-5.097924297924298,-38.53431013431013
01:18.297,0.6298828125,1.984375,0.48974609375,37.994384765625,-63.51470947265625,-91.30096435546875,-45.88131868131868,-5.697680097680098,-31.787057387057384,-0.43310546875,-1.837890625,0.5419921875,-0.579833984375,41.68701171875,-15.533447265625,46.48107448107448,-79.01782661782661,84.4156288156288,-0.2587890625,2.6474609375,-0.3798828125,-40.22216796875,-15.37322998046875,-74.9053955078125,-62.82442002442002,23.84029304029304,-33.88620268620269
01:19.126,0.5322265625,1.78466796875,-0.349609375,-24.7650146484375,67.2149658203125,64.4989013671875,-45.88131868131868,-5.697680097680098,-31.787057387057384,-0.43310546875,-1.837890625,0.5419921875,11.23809814453125,-3.35693359375,7.25555419921875,41.533089133089135,-74.06984126984126,79.31770451770451,-0.2587890625,2.6474609375,-0.3798828125,-12.054443359375,-37.2161865234375,7.65228271484375,-41.98290598290598,20.24175824175824,-30.137728937728937
01:19.955,0.134765625,2.27392578125,0.32421875,8.97979736328125,249.99237060546875,54.2144775390625,-34.036141636141636,-16.64322344322344,-35.68547008547009,-0.0107421875,-1.8564453125,0.388671875,11.23809814453125,-3.35693359375,7.25555419921875,41.533089133089135,-73.02026862026862,70.17142857142856,0.00146484375,1.89208984375,-0.63623046875,-12.054443359375,-37.2161865234375,7.65228271484375,-51.129181929181925,39.883760683760684,5.397802197802197
01:20.832,0.93359375,1.923828125,0.33642578125,64.39208984375,10.8795166015625,1.2359619140625,-38.98412698412698,-8.846398046398047,-46.33113553113553,-0.0859375,-1.890625,0.62255859375,9.88006591796875,69.05364990234375,-40.03143310546875,41.533089133089135,-73.02026862026862,70.17142857142856,0.5595703125,1.990234375,-0.3251953125,-11.7340087890625,-30.79986572265625,11.23809814453125,-51.129181929181925,39.883760683760684,5.397802197802197
01:21.661,0.484375,1.70458984375,0.4462890625,18.9971923828125,-30.029296875,-8.21685791015625,-34.93577533577533,24.44004884004884,-36.135286935286935,-0.25439453125,-1.6533203125,0.60791015625,-18.88275146484375,19.99664306640625,12.5274658203125,48.58021978021978,-87.56434676434677,51.429059829059824,-0.24755859375,2.77685546875,-0.4453125,-8.6669921875,-3.92913818359375,-92.32330322265625,-74.21978021978022,32.686691086691084,23.54041514041514
01:22.538,-0.1220703125,2.0703125,0.61376953125,0.1220703125,11.1846923828125,-22.80426025390625,-39.583882783882785,12.444932844932845,-34.485958485958484,-0.14794921875,-2.06298828125,0.4658203125,-16.510009765625,-3.44085693359375,1.21307373046875,49.62979242979243,-85.01538461538462,53.228327228327224,-0.1357421875,1.95849609375,-0.4521484375,3.99017333984375,-5.401611328125,-24.45220947265625,-63.724053724053725,33.73626373626374,25.93943833943834
01:23.367,-0.1220703125,2.0703125,0.61376953125,33.843994140625,-29.42657470703125,-41.17584228515625,-28.93821733821734,24.44004884004884,-21.59120879120879,0.0517578125,-1.66162109375,0.52587890625,-1.06048583984375,-40.10772705078125,27.7252197265625,50.07960927960928,-91.16288156288157,55.62735042735043,-2.18701171875,1.78271484375,-0.99951171875,11.29913330078125,10.52093505859375,-14.0533447265625,-33.43638583638584,39.883760683760684,57.72649572649573
01:24.196,0.6240234375,1.79931640625,0.6572265625,33.843994140625,-29.42657470703125,-41.17584228515625,-28.93821733821734,24.44004884004884,-21.59120879120879,-0.11279296875,-2.51171875,0.89794921875,27.41241455078125,25.421142578125,-20.9503173828125,52.778510378510376,-90.56312576312575,57.87643467643468,0.17333984375,1.26220703125,0.3505859375,-58.70819091796875,-20.2178955078125,120.59783935546875,-68.07228327228327,39.13406593406593,16.193406593406593
01:25.073,0.345703125,2.419921875,0.72265625,45.43304443359375,-31.48651123046875,-66.10870361328125,-38.68424908424908,25.03980463980464,-36.73504273504273,-0.11279296875,-2.51171875,0.89794921875,-13.11492919921875,-124.54986572265625,46.44012451171875,60.87521367521367,-84.56556776556776,71.82075702075701,0.17333984375,1.26220703125,0.3505859375,-14.88494873046875,15.9454345703125,-8.90350341796875,-34.336019536019535,61.47496947496947,46.33113553113553
01:25.951,0.84814453125,1.64599609375,-0.0068359375,19.81353759765625,47.38616943359375,9.49859619140625,-59.67570207570208,0.29987789987789987,-45.73137973137973,-0.72216796875,-1.8447265625,0.2666015625,-13.11492919921875,-124.54986572265625,46.44012451171875,67.62246642246642,-77.06862026862026,85.61514041514042,-0.1494140625,1.9853515625,-0.375,-14.88494873046875,15.9454345703125,-8.90350341796875,-100.6090354090354,40.93333333333333,-74.96947496947497
01:26.828,0.58154296875,1.78125,0.853515625,18.9666748046875,-15.98358154296875,-53.52783203125,-62.37460317460317,-0.29987789987789987,-13.194627594627594,0.04443359375,-1.81591796875,0.6611328125,-17.87567138671875,-31.0821533203125,-2.29644775390625,67.62246642246642,-77.06862026862026,85.61514041514042,0.31640625,1.9990234375,-0.80224609375,9.918212890625,31.5704345703125,-83.22906494140625,-100.6090354090354,40.93333333333333,-74.96947496947497
01:27.657,0.54638671875,3.0078125,0.35400390625,32.38677978515625,-127.69317626953125,-116.63055419921875,-61.47496947496947,-0.7496947496947497,-33.13650793650793,-0.3056640625,-2.412109375,0.755859375,4.5318603515625,60.66131591796875,-9.65118408203125,56.97680097680097,-77.96825396825396,91.76263736263736,0.1123046875,0.99462890625,-0.4208984375,57.037353515625,50.16326904296875,59.539794921875,-67.17264957264958,-12.444932844932845,-43.03247863247863
01:28.486,-0.31884765625,1.9970703125,-0.21044921875,-2.7313232421875,108.856201171875,-24.04022216796875,-40.48351648351648,-7.796825396825397,-16.64322344322344,-0.4716796875,-1.6298828125,0.451171875,8.72802734375,35.4156494140625,-19.03533935546875,49.329914529914525,-79.46764346764347,88.3140415140415,-0.265625,2.107421875,-0.52197265625,-26.9927978515625,-24.07073974609375,-61.48529052734375,-71.52087912087912,28.188522588522588,-33.58632478632479
01:29.364,-0.31884765625,1.9970703125,-0.21044921875,1.0986328125,-24.87945556640625,-30.70831298828125,-43.78217338217338,-2.848840048840049,-55.32747252747252,-0.22314453125,-2.14501953125,0.84716796875,4.6844482421875,-8.6517333984375,36.19384765625,42.28278388278388,-73.76996336996336,78.71794871794872,0.03125,2.005859375,-0.69287109375,-9.490966796875,-35.82000732421875,-18.035888671875,-49.92967032967033,15.893528693528692,-36.73504273504273
01:30.192,0.0546875,2.279296875,0.296875,1.0986328125,-24.87945556640625,-30.70831298828125,-43.78217338217338,-2.848840048840049,-55.32747252747252,0.220703125,-1.955078125,0.6513671875,-2.89154052734375,52.11639404296875,-33.6456298828125,43.03247863247863,-72.27057387057387,73.32014652014652,0.349609375,2.064453125,0.107421875,-15.02227783203125,-127.69317626953125,8.84246826171875,-44.08205128205128,36.435164835164834,2.6989010989010986
01:31.167,0.44091796875,2.1044921875,0.6103515625,98.94561767578125,-18.94378662109375,-109.0087890625,-44.83174603174603,3.4485958485958483,-57.72649572649573,-0.22412109375,-1.64404296875,0.66015625,-6.98089599609375,30.120849609375,4.8065185546875,49.030036630036626,-82.01660561660562,51.72893772893773,-0.30419921875,2.099609375,-0.52587890625,1.15203857421875,-16.33453369140625,-49.5147705078125,-70.47130647130646,31.487179487179485,23.690354090354088
01:32.045,0.40869140625,1.69091796875,0.32470703125,54.63409423828125,-39.19219970703125,-49.41558837890625,-37.634676434676436,18.29255189255189,-34.036141636141636,-0.22412109375,-1.64404296875,0.66015625,-15.5181884765625,-21.50726318359375,17.974853515625,49.179975579975576,-88.76385836385836,53.67814407814408,-0.30419921875,2.099609375,-0.52587890625,21.0418701171875,-11.016845703125,-37.8875732421875,-68.82197802197803,28.338461538461537,22.79072039072039
01:33.020,0.31298828125,1.91748046875,0.64892578125,33.2489013671875,16.10565185546875,-41.900634765625,-38.83418803418803,10.645665445665445,-22.64078144078144,-0.18505859375,-2.01025390625,0.87451171875,-14.556884765625,0.70953369140625,4.8828125,50.52942612942613,-91.01294261294261,58.92600732600732,0.13916015625,2.0654296875,-0.5302734375,-4.45556640625,55.3741455078125,201.34735107421875,-43.93211233211233,38.53431013431013,53.82808302808303
01:33.995,0.45361328125,1.64501953125,0.56982421875,17.63916015625,10.2691650390625,-25.61187744140625,-32.08693528693529,16.64322344322344,-12.294993894993894,-0.1298828125,-1.57958984375,0.4111328125,-12.91656494140625,35.17913818359375,-13.11492919921875,52.17875457875458,-90.11330891330891,65.82319902319902,-0.43798828125,2.04443359375,-0.13525390625,13.06915283203125,-28.00750732421875,-124.83978271484375,-48.28034188034188,43.93211233211233,48.28034188034188
01:34.921,0.529296875,1.419921875,0.5263671875,-7.04193115234375,59.71527099609375,49.98779296875,-35.53553113553114,24.29010989010989,-27.588766788766787,-0.4384765625,-1.669921875,0.654296875,-12.91656494140625,35.17913818359375,-13.11492919921875,52.17875457875458,-90.11330891330891,65.82319902319902,0.111328125,3.17431640625,-0.4853515625,13.06915283203125,-28.00750732421875,-124.83978271484375,-48.28034188034188,43.93211233211233,48.28034188034188
01:35.750,0.58154296875,1.96630859375,0.1103515625,-36.07940673828125,154.0679931640625,57.4951171875,-50.979242979242976,-4.1982905982905985,-25.489621489621488,-0.56103515625,-1.71484375,0.33740234375,-34.88922119140625,-106.6741943359375,52.20794677734375,57.87643467643468,-84.4156288156288,65.97313797313797,-0.30810546875,2.00146484375,-0.43798828125,6.70623779296875,23.468017578125,1.31988525390625,-40.48351648351648,56.07716727716728,32.386813186813185
01:36.578,0.2802734375,2.2099609375,0.45068359375,17.31109619140625,-88.37890625,-103.79791259765625,-64.92356532356533,-0.7496947496947497,-23.24053724053724,-0.24609375,-2.13134765625,0.37353515625,-29.56390380859375,6.2103271484375,5.950927734375,65.37338217338217,-80.66715506715506,91.01294261294261,-0.5068359375,2.45166015625,-0.2138671875,6.69097900390625,128.8299560546875,176.35345458984375,-91.01294261294261,52.47863247863248,-61.924786324786325
01:37.407,0.2802734375,2.2099609375,0.45068359375,20.5535888671875,-18.71490478515625,-22.01080322265625,-58.026373626373626,-11.695238095238095,-30.287667887667887,-0.58447265625,-1.92578125,-0.3291015625,-12.96234130859375,18.6614990234375,-0.5035400390625,60.72527472527472,-75.26935286935287,82.91623931623931,-0.0615234375,2.697265625,-0.330078125,-44.39544677734375,-29.13665771484375,-94.9859619140625,-95.66105006105006,6.747252747252747,-69.57167277167277
01:38.236,0.44970703125,1.7724609375,0.1328125,20.5535888671875,-18.71490478515625,-22.01080322265625,-27.588766788766787,-19.941880341880342,-9.296214896214895,-0.5341796875,-2.17138671875,0.0166015625,-4.608154296875,7.6141357421875,-6.927490234375,53.67814407814408,-73.62002442002442,65.82319902319902,-0.15966796875,1.9609375,-0.43017578125,-32.196044921875,7.2784423828125,-24.54376220703125,-87.71428571428571,21.29133089133089,-50.979242979242976
01:39.065,-0.1201171875,2.59228515625,-0.02978515625,-8.39996337890625,40.7562255859375,14.1143798828125,-27.588766788766787,-19.941880341880342,-9.296214896214895,-0.5341796875,-2.17138671875,0.0166015625,-2.11334228515625,34.8663330078125,3.11279296875,44.23199023199023,-68.07228327228327,66.57289377289376,-0.15966796875,1.9609375,-0.43017578125,49.70550537109375,-100.74615478515625,8.0108642578125,-63.27423687423687,28.93821733821734,-40.18363858363858
01:39.894,0.07373046875,1.91162109375,0.69580078125,-10.33782958984375,-52.6123046875,-14.61029052734375,-44.08205128205128,-11.395360195360196,-44.68180708180708,-0.00048828125,-1.94580078125,0.2265625,-2.11334228515625,34.8663330078125,3.11279296875,44.23199023199023,-68.07228327228327,66.57289377289376,0.046875,1.8828125,-0.5302734375,49.70550537109375,-100.74615478515625,8.0108642578125,-63.27423687423687,28.93821733821734,-40.18363858363858
01:40.722,0.63623046875,1.912109375,0.45556640625,31.30340576171875,-53.1463623046875,-79.6966552734375,-43.78217338217338,16.343345543345542,-52.928449328449325,-0.20654296875,-1.9208984375,0.439453125,-3.84521484375,63.751220703125,-12.6190185546875,47.53064713064713,-78.41807081807082,49.329914529914525,-0.24560546875,2.56005859375,-0.64892578125,-3.36456298828125,-29.4647216796875,-87.18109130859375,-63.27423687423687,42.28278388278388,19.791941391941393
01:41.600,0.69775390625,2.8955078125,0.68896484375,85.60943603515625,58.31146240234375,-144.90509033203125,-47.98046398046398,11.395360195360196,-43.63223443223443,-0.2001953125,-2.06689453125,0.5146484375,8.01849365234375,-17.1966552734375,-1.3427734375,51.129181929181925,-89.36361416361416,50.67936507936508,-0.00341796875,1.97119140625,-0.48388671875,-0.274658203125,-1.6326904296875,-38.68865966796875,-45.13162393162393,49.92967032967033,42.88253968253968
01:42.428,0.68359375,1.78662109375,0.81103515625,23.2391357421875,69.81658935546875,-47.90496826171875,-58.326251526251525,17.093040293040293,-47.53064713064713,-0.146484375,-1.71533203125,0.54541015625,-15.411376953125,-91.08734130859375,46.05865478515625,63.27423687423687,-85.91501831501832,72.27057387057387,-4.17236328125,2.63525390625,-3.552734375,-67.40570068359375,65.765380859375,-108.07037353515625,-78.41807081807082,49.479853479853475,29.537973137973136
01:43.403,0.68359375,1.78662109375,0.81103515625,-38.99383544921875,15.93780517578125,3.692626953125,-73.17020757020757,-0.5997557997557997,-54.12796092796093,-0.57568359375,-1.802734375,0.58251953125,-5.63812255859375,-38.12408447265625,-2.54058837890625,70.32136752136752,-81.71672771672772,104.05763125763126,-0.90869140625,1.86328125,-0.70849609375,-55.0079345703125,68.7408447265625,-72.6470947265625,-95.36117216117216,46.93089133089133,-31.487179487179485
01:44.281,0.50830078125,1.81982421875,0.33642578125,-38.99383544921875,15.93780517578125,3.692626953125,-62.52454212454212,-11.395360195360196,-23.54041514041514,-0.35205078125,-2.02978515625,0.3154296875,-9.23919677734375,-23.2086181640625,15.13671875,71.97069597069597,-82.61636141636141,100.75897435897436,-0.34619140625,2.126953125,-0.29833984375,-12.969970703125,17.425537109375,-71.02203369140625,-96.4107448107448,48.73015873015873,-21.741147741147742
01:45.110,0.53564453125,2.154296875,0.4150390625,-22.49908447265625,99.06768798828125,60.21881103515625,-62.52454212454212,-11.395360195360196,-23.54041514041514,-0.35205078125,-2.02978515625,0.3154296875,0.20599365234375,9.34600830078125,23.13995361328125,54.27789987789988,-77.36849816849816,91.6126984126984,-0.34619140625,2.126953125,-0.29833984375,-0.48828125,-40.985107421875,-42.35076904296875,-81.56678876678876,1.0495726495726496,-55.62735042735043
01:45.938,-0.0185546875,2.0908203125,0.07275390625,23.3306884765625,-68.4967041015625,-12.70294189453125,-50.37948717948718,-10.195848595848595,-19.64200244200244,-0.2255859375,-1.796875,0.64404296875,0.20599365234375,9.34600830078125,23.13995361328125,44.08205128205128,-74.06984126984126,83.51599511599511,-0.01416015625,1.99169921875,-0.6298828125,-0.48828125,-40.985107421875,-42.35076904296875,-49.92967032967033,7.946764346764346,-34.93577533577533
01:46.768,-0.22314453125,1.92822265625,0.54150390625,-18.65386962890625,3.41033935546875,77.0263671875,-44.83174603174603,-7.496947496947497,-43.63223443223443,0.0439453125,-1.623046875,0.65869140625,-2.227783203125,-28.99932861328125,0.83160400390625,44.08205128205128,-74.06984126984126,83.51599511599511,-0.58984375,2.5078125,-0.375,43.64776611328125,24.932861328125,167.76275634765625,-49.92967032967033,7.946764346764346,-34.93577533577533
01:47.596,0.08837890625,1.97509765625,0.3388671875,-41.63360595703125,-60.7147216796875,-16.7236328125,-43.63223443223443,0.4498168498168498,-55.77728937728938,-0.392578125,-1.90283203125,0.4736328125,5.27191162109375,105.50689697265625,-50.86517333984375,43.18241758241758,-74.36971916971916,73.17020757020757,-0.56005859375,2.0810546875,-0.3388671875,-19.012451171875,-60.79864501953125,-4.03594970703125,-35.38559218559219,25.18974358974359,-8.846398046398047
01:48.425,0.00537109375,1.79296875,0.5859375,-46.478271484375,-68.9239501953125,26.48162841796875,-31.936996336996337,-19.791941391941393,-28.488400488400487,0.19921875,-1.8662109375,0.69677734375,12.847900390625,40.62652587890625,-10.68878173828125,42.88253968253968,-72.42051282051281,66.57289377289376,-0.27294921875,1.77685546875,-0.6806640625,46.02813720703125,39.1082763671875,-77.62908935546875,-46.78095238095238,38.53431013431013,6.747252747252747
01:49.400,0.326171875,2.45556640625,0.58740234375,28.6865234375,-45.24993896484375,-91.36962890625,-39.733821733821735,15.743589743589743,-32.236874236874236,-0.28564453125,-2.4404296875,0.62060546875,25.10833740234375,3.021240234375,-17.27294921875,48.73015873015873,-88.0141636141636,48.13040293040293,0.080078125,1.474609375,0.20703125,-21.59881591796875,8.14056396484375,175.01068115234375,-60.125518925518925,22.49084249084249,31.487179487179485
01:50.423,0.49609375,1.70654296875,0.212890625,-6.4544677734375,47.46246337890625,54.8248291015625,-35.835409035409036,14.394139194139193,-24.44004884004884,-0.30810546875,-1.65625,0.53662109375,-9.4146728515625,-31.0516357421875,5.79833984375,49.179975579975576,-94.61147741147741,56.826862026862024,-0.33740234375,2.3369140625,-0.5087890625,-25.21514892578125,-5.60760498046875,-80.40618896484375,-34.036141636141636,30.737484737484735,59.22588522588522
01:51.252,0.49609375,1.70654296875,0.212890625,-6.4544677734375,47.46246337890625,54.8248291015625,-38.68424908424908,15.443711843711844,-21.44126984126984,-0.17626953125,-2.322265625,0.84326171875,12.65716552734375,-32.95135498046875,21.03424072265625,51.279120879120875,-92.5123321123321,61.47496947496947,0.40478515625,2.03564453125,-0.6201171875,6.4544677734375,1.64794921875,-37.0635986328125,-46.93089133089133,41.98290598290598,51.279120879120875
01:52.178,0.46630859375,2.35205078125,0.546875,-0.640869140625,4.6844482421875,29.388427734375,-38.68424908424908,15.443711843711844,-21.44126984126984,-0.15283203125,-1.755859375,0.517578125,-25.73394775390625,-122.84088134765625,52.51312255859375,59.67570207570208,-87.71428571428571,71.97069597069597,-0.7529296875,2.30419921875,0.26708984375,48.59161376953125,-137.56561279296875,63.88092041015625,-73.91990231990232,45.73137973137973,23.84029304029304
01:53.056,0.56640625,1.75634765625,0.3623046875,-9.14764404296875,145.69091796875,40.1153564453125,-55.77728937728938,10.645665445665445,-37.634676434676436,-0.15283203125,-1.755859375,0.517578125,6.52313232421875,-30.2734375,8.23974609375,67.77240537240537,-82.31648351648352,92.81221001221,-0.42822265625,1.47509765625,-0.28662109375,-2.51007080078125,91.51458740234375,86.26556396484375,-89.06373626373626,43.93211233211233,-53.97802197802198
01:54.031,0.2724609375,1.7216796875,0.82470703125,36.99493408203125,19.4244384765625,-84.57183837890625,-74.51965811965812,-2.848840048840049,-51.279120879120875,-0.1083984375,-1.8115234375,0.564453125,6.52313232421875,-30.2734375,8.23974609375,61.32503052503052,-80.21733821733821,98.809768009768,-0.42822265625,1.47509765625,-0.28662109375,-2.51007080078125,91.51458740234375,86.26556396484375,-90.56312576312575,38.234432234432234,-61.17509157509157
01:54.908,0.24560546875,1.748046875,0.234375,-3.63922119140625,-7.6751708984375,30.1666259765625,-41.832967032967034,-19.19218559218559,-2.249084249084249,-0.46728515625,-1.65673828125,0.34033203125,-10.73455810546875,-30.8685302734375,-0.69427490234375,61.32503052503052,-80.21733821733821,98.809768009768,-0.326171875,2.24267578125,-0.470703125,-30.79986572265625,-13.5040283203125,-64.68963623046875,-90.56312576312575,38.234432234432234,-61.17509157509157
01:55.737,0.3291015625,2.30859375,0.1748046875,42.15240478515625,-36.9415283203125,-34.66033935546875,-31.337240537240536,-16.343345543345542,-0.29987789987789987,-0.46875,-2.34521484375,0.6455078125,17.9595947265625,27.923583984375,18.035888671875,50.07960927960928,-74.66959706959706,86.96459096459097,0.18798828125,1.962890625,-0.6005859375,-9.8876953125,-30.79986572265625,-26.2298583984375,-78.71794871794872,10.795604395604395,-49.92967032967033
01:56.664,-0.05126953125,1.748046875,0.3271484375,28.076171875,-13.214111328125,-97.4273681640625,-25.93943833943834,-21.29133089133089,-22.34090354090354,0.09716796875,-1.705078125,0.61279296875,-19.866943359375,32.41729736328125,-4.29534912109375,39.733821733821735,-73.47008547008546,79.01782661782661,-0.5810546875,2.3359375,0.390625,25.390625,-167.8466796875,55.5419921875,-43.482295482295484,10.195848595848595,-29.987789987789988
01:57.541,0.78857421875,1.86181640625,0.220703125,-58.5479736328125,-121.551513671875,-101.47857666015625,-41.533089133089135,-4.947985347985348,-48.58021978021978,-0.29150390625,-1.876953125,0.38037109375,20.5230712890625,139.21356201171875,-48.9654541015625,44.38192918192918,-74.81953601953602,74.06984126984126,-0.04541015625,1.71875,-0.8251953125,52.51312255859375,-250.0,101.52435302734375,-36.135286935286935,35.38559218559219,1.6493284493284492
01:58.370,0.78857421875,1.86181640625,0.220703125,1.77001953125,-97.43499755859375,-34.5458984375,-39.583882783882785,-11.095482295482295,-44.08205128205128,-0.125,-1.73486328125,0.6015625,7.9498291015625,-15.2587890625,25.7568359375,47.230769230769226,-75.41929181929181,54.27789987789988,-0.18310546875,1.9453125,-0.6630859375,-15.22064208984375,-9.9639892578125,6.5765380859375,-44.68180708180708,39.883760683760684,21.741147741147742
01:59.296,-0.0390625,2.24169921875,0.265625,1.77001953125,-97.43499755859375,-34.5458984375,-32.836630036630034,24.14017094017094,-28.338461538461537,-0.0595703125,-1.685546875,0.46875,-22.59063720703125,-32.257080078125,13.64898681640625,50.22954822954823,-89.96336996336996,53.37826617826617,-0.72998046875,2.2265625,-0.64208984375,-24.8260498046875,72.0672607421875,138.9312744140625,-66.42295482295482,24.88986568986569,25.78949938949939
02:00.173,0.0341796875,1.86181640625,0.275390625,37.628173828125,60.5621337890625,-67.2760009765625,-32.836630036630034,24.14017094017094,-28.338461538461537,-0.2998046875,-1.7734375,0.72119140625,-0.91552734375,21.392822265625,-25.08544921875,49.329914529914525,-93.71184371184371,56.377045177045176,0.4326171875,2.8828125,-0.888671875,5.42449951171875,-107.1319580078125,-127.38037109375,-51.129181929181925,39.883760683760684,51.72893772893773
02:01.149,0.568359375,2.06005859375,0.89013671875,69.9310302734375,116.5771484375,-41.3360595703125,-33.58632478632479,17.39291819291819,-20.841514041514042,-0.47998046875,-1.81396484375,0.23876953125,-30.40313720703125,28.32794189453125,4.302978515625,50.979242979242976,-88.0141636141636,57.27667887667887,-0.15966796875,1.9169921875,-0.65087890625,-3.7078857421875,-37.97149658203125,-25.2838134765625,-38.084493284493284,44.68180708180708,62.224664224664224
02:02.026,0.490234375,2.06201171875,0.2412109375,43.76220703125,-56.82373046875,-55.7708740234375,-43.482295482295484,13.044688644688645,-30.437606837606836,-0.47998046875,-1.81396484375,0.23876953125,-30.40313720703125,28.32794189453125,4.302978515625,60.125518925518925,-86.81465201465201,72.12063492063491,-0.15966796875,1.9169921875,-0.65087890625,-3.7078857421875,-37.97149658203125,-25.2838134765625,-73.91990231990232,47.83052503052503,28.338461538461537
02:02.855,0.52880859375,1.73583984375,0.27294921875,114.31121826171875,74.5391845703125,-14.94598388671875,-55.027594627594624,10.195848595848595,-35.835409035409036,-0.4287109375,-1.89404296875,0.60546875,-42.67120361328125,-128.84521484375,52.30712890625,60.125518925518925,-86.81465201465201,72.12063492063491,-0.56396484375,2.67822265625,0.88427734375,25.82550048828125,-53.0242919921875,51.36871337890625,-73.91990231990232,47.83052503052503,28.338461538461537
02:03.684,0.455078125,2.32373046875,0.2763671875,-82.244873046875,29.38079833984375,119.46868896484375,-57.12673992673992,-17.54285714285714,-11.695238095238095,-0.3076171875,-1.94775390625,0.76318359375,8.7127685546875,-47.20306396484375,-0.75531005859375,67.77240537240537,-78.41807081807082,99.85934065934066,0.68603515625,1.74072265625,-1.2001953125,-22.216796875,146.61407470703125,-88.5772705078125,-97.61025641025641,46.48107448107448,-40.78339438339438
02:04.512,0.45703125,2.73388671875,0.29638671875,-80.1239013671875,101.26495361328125,128.082275390625,-56.97680097680097,-10.945543345543346,-8.696459096459096,-0.43408203125,-2.09814453125,0.44873046875,5.31768798828125,-18.57757568359375,11.52801513671875,67.92234432234432,-81.41684981684982,103.3079365079365,-0.1005859375,2.02587890625,-0.44580078125,-14.1143798828125,-11.5814208984375,-40.8935546875,-97.91013431013431,48.43028083028083,-34.336019536019535
02:05.341,0.45703125,2.73388671875,0.29638671875,-35.5377197265625,1.06048583984375,104.2022705078125,-46.63101343101343,-10.345787545787545,-12.294993894993894,-0.0947265625,-1.72412109375,0.65185546875,-0.3814697265625,-2.98309326171875,23.50616455078125,51.72893772893773,-78.11819291819292,92.06251526251526,-0.107421875,1.8740234375,-0.72802734375,-5.25665283203125,-38.62762451171875,-36.590576171875,-80.66715506715506,2.998778998778999,-59.52576312576312
02:06.267,0.44970703125,1.91552734375,0.6005859375,-35.5377197265625,1.06048583984375,104.2022705078125,-38.98412698412698,-13.494505494505495,-24.44004884004884,-0.0205078125,-1.6806640625,0.76318359375,3.25775146484375,-16.4337158203125,-6.04248046875,41.98290598290598,-77.81831501831502,85.61514041514042,-0.68310546875,2.458984375,-0.30224609375,35.2935791015625,-10.80322265625,159.515380859375,-45.73137973137973,4.798046398046398,-26.389255189255188
02:07.096,-0.2939453125,2.02197265625,0.6142578125,-23.32305908203125,-15.19012451171875,37.41455078125,-38.98412698412698,-13.494505494505495,-24.44004884004884,-0.0205078125,-1.6806640625,0.76318359375,28.83148193359375,126.12152099609375,-56.33544921875,41.683028083028084,-77.21855921855922,79.16776556776557,-0.68310546875,2.458984375,-0.30224609375,25.9246826171875,-148.79608154296875,15.95306396484375,-31.487179487179485,23.09059829059829,-8.846398046398047
02:07.925,0.18994140625,1.552734375,0.32861328125,-13.34381103515625,-37.55950927734375,-59.99755859375,-41.533089133089135,-7.796825396825397,-42.58266178266178,-0.34912109375,-1.6875,0.63720703125,28.83148193359375,126.12152099609375,-56.33544921875,41.683028083028084,-77.21855921855922,79.16776556776557,-0.88525390625,1.64990234375,-1.0537109375,25.9246826171875,-148.79608154296875,15.95306396484375,-31.487179487179485,23.09059829059829,-8.846398046398047
02:08.753,0.57470703125,1.66552734375,0.95361328125,3.70025634765625,38.8946533203125,39.48211669921875,-25.93943833943834,-18.742368742368743,-18.29255189255189,-0.1181640625,-1.75146484375,0.81201171875,17.2119140625,10.96343994140625,14.12200927734375,43.78217338217338,-73.47008547008546,69.57167277167277,-0.06982421875,2.068359375,-0.54150390625,20.1568603515625,-4.9591064453125,-20.07293701171875,-38.98412698412698,37.18485958485958,7.946764346764346
02:09.680,0.6982421875,1.8271484375,0.595703125,-16.754150390625,-29.38079833984375,30.76934814453125,-36.435164835164834,20.99145299145299,-28.638339438339436,-0.00537109375,-1.89111328125,0.6943359375,-1.0986328125,-13.0462646484375,-3.48663330078125,50.07960927960928,-90.11330891330891,54.877655677655675,-1.83447265625,2.58251953125,-1.43212890625,-15.838623046875,186.8133544921875,138.0615234375,-47.380708180708176,24.88986568986569,40.48351648351648
02:10.557,0.69140625,2.27001953125,0.5830078125,12.85552978515625,-75.5462646484375,-34.01947021484375,-26.98901098901099,22.94065934065934,-13.194627594627594,-0.43994140625,-2.1015625,0.8447265625,0.1373291015625,-4.24957275390625,-13.6260986328125,49.62979242979243,-95.96092796092796,62.37460317460317,1.154296875,0.9169921875,-0.54052734375,-7.27081298828125,-34.8663330078125,2.960205078125,-57.12673992673992,32.536752136752135,48.13040293040293
02:11.435,0.64013671875,1.78857421875,0.40380859375,-9.22393798828125,-16.326904296875,-12.0697021484375,-34.036141636141636,27.88864468864469,-29.83785103785104,-0.46728515625,-1.67578125,0.48681640625,-9.31549072265625,-31.18896484375,3.173828125,52.17875457875458,-91.9125763125763,62.37460317460317,-0.35595703125,2.1494140625,-0.57275390625,-21.36993408203125,1.617431640625,-78.75823974609375,-34.93577533577533,45.73137973137973,61.924786324786325
02:12.312,0.64013671875,1.78857421875,0.40380859375,-9.22393798828125,-16.326904296875,-12.0697021484375,-57.57655677655677,18.44249084249084,-56.377045177045176,-0.31396484375,-1.8173828125,0.474609375,-29.388427734375,-130.096435546875,64.32342529296875,62.37460317460317,-83.06617826617827,68.97191697191697,-0.28515625,1.970703125,-0.47412109375,1.83868408203125,20.4925537109375,11.7950439453125,-56.377045177045176,53.078388278388275,35.835409035409036
02:13.190,0.58203125,2.1494140625,0.3681640625,-19.40155029296875,150.48980712890625,74.59259033203125,-57.57655677655677,18.44249084249084,-56.377045177045176,0.09619140625,-1.92529296875,0.71630859375,-13.42010498046875,4.60052490234375,-21.32415771484375,65.37338217338217,-81.41684981684982,93.11208791208792,-0.00439453125,2.53759765625,-0.4560546875,1.88446044921875,194.61822509765625,175.5828857421875,-102.4083028083028,36.73504273504273,-76.76874236874237
02:14.018,0.35986328125,2.24951171875,0.5693359375,21.6827392578125,-74.4781494140625,-114.87579345703125,-69.72161172161172,3.598534798534798,-35.08571428571428,0.09619140625,-1.92529296875,0.71630859375,-13.42010498046875,4.60052490234375,-21.32415771484375,57.27667887667887,-77.96825396825396,96.4107448107448,-0.00439453125,2.53759765625,-0.4560546875,1.88446044921875,194.61822509765625,175.5828857421875,-100.0092796092796,8.996336996336996,-68.82197802197803
02:14.848,0.38916015625,1.69189453125,0.4794921875,64.59808349609375,100.53253173828125,-58.44879150390625,-50.52942612942613,-11.095482295482295,-10.945543345543346,-0.43701171875,-1.8232421875,0.65576171875,-16.29638671875,-25.26092529296875,4.5013427734375,57.27667887667887,-77.96825396825396,96.4107448107448,0.42529296875,2.85009765625,-0.71875,-40.09246826171875,-22.65167236328125,-140.44952392578125,-100.0092796092796,8.996336996336996,-68.82197802197803
02:15.676,0.458984375,1.822265625,0.57958984375,4.38690185546875,39.03961181640625,12.14599609375,-26.98901098901099,-17.992673992673993,-0.29987789987789987,-0.2568359375,-1.85009765625,0.24658203125,-1.0223388671875,-0.90789794921875,-8.9263916015625,49.329914529914525,-78.71794871794872,90.71306471306471,-0.3330078125,1.9912109375,-0.6171875,-2.7923583984375,-27.8778076171875,-21.453857421875,-91.01294261294261,21.59120879120879,-46.18119658119658
02:16.602,0.12109375,1.87939453125,0.8076171875,-20.71380615234375,34.01947021484375,75.8056640625,-11.995115995115995,-18.29255189255189,7.796825396825397,-0.02880859375,-1.7880859375,0.67333984375,9.94110107421875,-13.8397216796875,10.45989990234375,39.13406593406593,-79.01782661782661,86.51477411477411,0.3125,2.029296875,-0.6357421875,-3.37982177734375,24.37591552734375,-55.9539794921875,-48.43028083028083,9.296214896214895,-30.137728937728937
02:17.528,0.40087890625,2.67529296875,0.1767578125,-32.7301025390625,-250.0,-184.75341796875,-35.985347985347985,-13.944322344322345,-32.08693528693529,-0.0751953125,-1.8193359375,0.5751953125,9.74273681640625,121.36077880859375,-52.6123046875,42.58266178266178,-76.31892551892551,75.11941391941392,-0.84130859375,1.55859375,-0.505859375,95.6268310546875,-248.9166259765625,86.21978759765625,-32.836630036630034,33.58632478632479,8.696459096459096
02:18.406,0.40087890625,2.67529296875,0.1767578125,-27.15301513671875,42.56439208984375,85.71624755859375,-48.13040293040293,2.998778998778999,-45.88131868131868,-0.1728515625,-1.67333984375,0.59716796875,4.3792724609375,-11.4593505859375,22.60589599609375,48.73015873015873,-76.31892551892551,64.62368742368741,-0.27783203125,1.9130859375,-0.56689453125,11.9781494140625,-13.18359375,2.83050537109375,-41.683028083028084,43.18241758241758,27.288888888888888
02:19.381,0.373046875,1.86669921875,0.55322265625,-61.6455078125,-36.224365234375,56.93817138671875,-38.38437118437118,19.64200244200244,-32.686691086691084,-0.02001953125,-1.5869140625,0.49072265625,-1.67083740234375,-6.72149658203125,3.1890869140625,52.628571428571426,-85.61514041514042,52.47863247863248,-3.24560546875,1.94482421875,-1.48681640625,34.72900390625,33.26416015625,-79.4525146484375,-65.97313797313797,26.539194139194137,24.14017094017094
02:20.210,0.2197265625,1.6318359375,0.44677734375,-61.6455078125,-36.224365234375,56.93817138671875,-38.38437118437118,19.64200244200244,-32.686691086691084,-0.2177734375,-2.23974609375,0.66748046875,8.01849365234375,-1.33514404296875,-16.88385009765625,49.030036630036626,-94.91135531135531,56.377045177045176,-0.0888671875,1.54443359375,-0.19384765625,-11.32965087890625,123.10791015625,201.33209228515625,-42.43272283272283,38.084493284493284,54.27789987789988
02:21.233,0.22119140625,2.3388671875,0.49951171875,59.68475341796875,-13.58795166015625,-79.1473388671875,-41.38315018315018,16.343345543345542,-24.29010989010989,-0.25244140625,-1.71142578125,0.5615234375,-2.50244140625,9.368896484375,3.96728515625,51.129181929181925,-91.6126984126984,58.026373626373626,-0.0859375,3.1943359375,-0.47119140625,-32.257080078125,-26.39007568359375,-113.73138427734375,-40.78339438339438,45.13162393162393,53.67814407814408
02:22.160,0.333984375,1.560546875,0.28466796875,16.13616943359375,25.85601806640625,-1.35040283203125,-41.38315018315018,16.343345543345542,-24.29010989010989,-0.24755859375,-2.208984375,0.11474609375,-36.6058349609375,-98.85406494140625,59.1583251953125,59.825641025641026,-85.01538461538462,66.57289377289376,-0.22705078125,2.05322265625,-0.35986328125,-6.24847412109375,22.4761962890625,-6.439208984375,-49.179975579975576,54.877655677655675,39.433943833943836
02:23.184,0.66748046875,2.3349609375,-0.06201171875,-41.748046875,181.6558837890625,46.20361328125,-57.87643467643468,0.5997557997557997,-28.03858363858364,0.041015625,-1.861328125,0.625,-19.00482177734375,-29.80804443359375,0.4119873046875,67.32258852258852,-80.66715506715506,82.91623931623931,3.341796875,2.58154296875,0.091796875,-2.81524658203125,-69.580078125,-0.14495849609375,-88.76385836385836,41.98290598290598,-65.07350427350427
02:24.012,0.4462890625,1.869140625,0.91259765625,14.2059326171875,5.3558349609375,-21.30889892578125,-65.67326007326007,6.297435897435897,-21.14139194139194,0.041015625,-1.861328125,0.625,-19.00482177734375,-29.80804443359375,0.4119873046875,58.026373626373626,-78.71794871794872,89.06373626373626,3.341796875,2.58154296875,0.091796875,-2.81524658203125,-69.580078125,-0.14495849609375,-79.31770451770451,-8.546520146520146,-51.87887667887668
02:24.841,0.33935546875,2.0859375,0.6953125,53.93218994140625,-48.88153076171875,-85.1898193359375,-61.924786324786325,0.4498168498168498,-36.73504273504273,-0.126953125,-2.05126953125,0.34033203125,-0.152587890625,-23.9410400390625,-1.6632080078125,58.026373626373626,-78.71794871794872,89.06373626373626,-0.1982421875,1.41552734375,-0.0595703125,25.30670166015625,22.186279296875,186.46240234375,-73.02026862026862,18.742368742368743,-34.336019536019535
02:25.816,0.47802734375,2.13916015625,0.2197265625,16.07513427734375,-77.69775390625,-103.75213623046875,-41.98290598290598,-9.746031746031745,-16.793162393162394,-0.3583984375,-1.85693359375,0.45458984375,-9.66644287109375,100.50201416015625,-32.03582763671875,48.28034188034188,-80.51721611721611,89.66349206349206,-0.02734375,3.380859375,-0.390625,-12.176513671875,-44.1131591796875,-115.15045166015625,-73.02026862026862,18.742368742368743,-34.336019536019535
02:26.645,0.24072265625,2.2236328125,0.72216796875,33.97369384765625,-58.44879150390625,-102.5848388671875,-32.08693528693529,-14.244200244200243,-21.89108669108669,-0.267578125,-1.69482421875,0.25048828125,6.15692138671875,-6.76727294921875,4.0130615234375,40.78339438339438,-77.06862026862026,81.41684981684982,0.07666015625,1.94287109375,-0.59326171875,-19.12689208984375,-30.8685302734375,-21.209716796875,-51.72893772893773,13.644444444444444,-32.236874236874236
02:27.522,0.12841796875,1.87255859375,0.7197265625,-11.7950439453125,-116.67633056640625,2.0751953125,-33.88620268620269,-14.244200244200243,-21.14139194139194,0.1943359375,-1.89208984375,0.36328125,-0.86212158203125,90.55328369140625,-20.7977294921875,40.033699633699634,-75.56923076923077,81.41684981684982,0.64990234375,1.9345703125,-0.44970703125,10.15472412109375,45.3643798828125,-16.12091064453125,-39.583882783882785,31.936996336996337,2.249084249084249
02:28.351,0.12841796875,1.87255859375,0.7197265625,24.83367919921875,-13.14544677734375,-45.867919921875,-41.38315018315018,18.742368742368743,-46.78095238095238,-0.25048828125,-1.81689453125,0.767578125,1.94549560546875,91.88079833984375,-34.8052978515625,46.48107448107448,-81.26691086691086,46.18119658119658,-0.462890625,2.5634765625,-1.15234375,24.26910400390625,-27.42767333984375,-149.200439453125,-67.17264957264958,22.79072039072039,30.287667887667887
02:29.229,0.70654296875,1.94775390625,0.30419921875,24.83367919921875,-13.14544677734375,-45.867919921875,-33.73626373626374,14.394139194139193,-13.494505494505495,-0.33203125,-2.08349609375,0.5263671875,-4.67681884765625,-56.63299560546875,32.03582763671875,49.92967032967033,-88.0141636141636,56.526984126984125,-0.1201171875,2.0263671875,-0.4375,-17.72308349609375,-9.307861328125,-43.05267333984375,-48.43028083028083,32.08693528693529,32.386813186813185
02:30.155,0.3134765625,1.83154296875,0.48388671875,6.67572021484375,85.38818359375,22.7203369140625,-33.73626373626374,14.394139194139193,-13.494505494505495,-0.0029296875,-1.84765625,0.67919921875,-4.058837890625,-47.0428466796875,31.25762939453125,50.37948717948718,-92.66227106227106,59.52576312576312,0.09228515625,2.02978515625,-0.58056640625,11.37542724609375,-29.9224853515625,-43.32733154296875,-45.28156288156288,42.43272283272283,54.877655677655675
02:31.032,0.65087890625,1.98974609375,0.53564453125,-59.97467041015625,-85.21270751953125,83.587646484375,-39.733821733821735,12.594871794871795,-20.69157509157509,-0.0029296875,-1.84765625,0.67919921875,-10.52093505859375,-69.1680908203125,39.337158203125,54.427838827838826,-87.86422466422466,68.22222222222221,0.09228515625,2.02978515625,-0.58056640625,-26.5960693359375,7.31658935546875,-74.859619140625,-72.27057387057387,47.68058608058608,15.593650793650793
02:31.958,0.73681640625,1.77392578125,0.70654296875,-0.6103515625,26.10015869140625,54.34417724609375,-51.429059829059824,14.394139194139193,-40.18363858363858,-0.2275390625,-1.65283203125,0.666015625,-10.52093505859375,-69.1680908203125,39.337158203125,65.97313797313797,-87.11452991452991,88.3140415140415,-1.0380859375,0.84326171875,-4.0712890625,-75.47760009765625,20.89691162109375,-67.54302978515625,-99.1096459096459,47.53064713064713,-54.427838827838826
02:32.885,0.68603515625,1.7294921875,0.154296875,-11.2457275390625,97.3052978515625,86.15875244140625,-63.57411477411477,17.692796092796094,-50.829304029304026,-0.490234375,-1.7607421875,0.76318359375,-5.8441162109375,-68.4356689453125,1.28936767578125,65.97313797313797,-87.11452991452991,88.3140415140415,0.06298828125,2.47802734375,-0.5380859375,-75.47760009765625,20.89691162109375,-67.54302978515625,-99.1096459096459,47.53064713064713,-54.427838827838826
02:33.714,0.54345703125,1.966796875,0.21337890625,-50.68206787109375,81.1614990234375,128.30352783203125,-47.53064713064713,-20.841514041514042,-12.145054945054945,-0.50537109375,-1.58935546875,0.18603515625,-7.965087890625,-57.403564453125,32.2265625,62.224664224664224,-77.36849816849816,93.11208791208792,-0.2314453125,1.974609375,-0.4755859375,-5.50079345703125,-10.6201171875,-45.98236083984375,-101.20879120879121,47.53064713064713,-52.32869352869353
02:34.591,0.59619140625,2.0341796875,0.83154296875,-21.61407470703125,3.7841796875,96.62628173828125,-39.883760683760684,-12.594871794871795,-10.645665445665445,-0.0419921875,-1.82958984375,0.693359375,3.448486328125,2.15911865234375,14.88494873046875,49.030036630036626,-78.41807081807082,93.26202686202686,0.59326171875,1.935546875,-0.6708984375,3.5247802734375,-52.3223876953125,-48.36273193359375,-65.07350427350427,-1.9492063492063492,-32.836630036630034
02:35.420,0.59619140625,2.0341796875,0.83154296875,2.76947021484375,-66.2384033203125,-52.0172119140625,-40.93333333333333,-11.095482295482295,-30.737484737484735,-0.13623046875,-2.19580078125,0.6181640625,0.06866455078125,44.6929931640625,-32.70721435546875,41.38315018315018,-78.71794871794872,86.96459096459097,-1.32666015625,2.9130859375,-0.3154296875,75.87432861328125,-152.24456787109375,243.560791015625,-30.437606837606836,4.648107448107448,-17.842735042735043
02:36.298,0.42236328125,2.1533203125,0.56689453125,2.76947021484375,-66.2384033203125,-52.0172119140625,-44.08205128205128,3.8984126984126983,-56.377045177045176,-0.38671875,-1.84326171875,0.4716796875,15.31219482421875,160.11810302734375,-58.685302734375,42.28278388278388,-73.02026862026862,74.81953601953602,0.22607421875,1.57177734375,-0.876953125,46.79107666015625,-250.0,138.48114013671875,-42.28278388278388,30.737484737484735,-1.799267399267399
02:37.126,0.25048828125,2.484375,0.31005859375,-3.82232666015625,-250.0,-195.77789306640625,-44.08205128205128,3.8984126984126983,-56.377045177045176,-0.3583984375,-1.8447265625,0.7001953125,7.05718994140625,-6.3323974609375,8.41522216796875,47.53064713064713,-74.66959706959706,59.825641025641026,-0.126953125,1.9443359375,-0.49755859375,2.12860107421875,-15.93780517578125,-14.34326171875,-62.97435897435897,34.485958485958484,13.644444444444444
02:38.052,0.412109375,2.4521484375,0.41455078125,-72.0367431640625,22.07183837890625,89.2181396484375,-41.533089133089135,-2.6989010989010986,-42.88253968253968,-0.3583984375,-1.8447265625,0.7001953125,-5.89752197265625,-13.3819580078125,9.42230224609375,48.13040293040293,-90.26324786324786,57.57655677655677,-0.126953125,1.9443359375,-0.49755859375,10.772705078125,-17.75360107421875,-45.58563232421875,-71.22100122100122,28.188522588522588,21.29133089133089
02:38.930,0.5419921875,1.904296875,0.8779296875,-4.94384765625,25.26092529296875,57.92999267578125,-36.285225885225884,16.193406593406593,-25.18974358974359,-0.04150390625,-1.75146484375,0.7734375,0.213623046875,-2.532958984375,-2.64739990234375,47.230769230769226,-97.76019536019535,61.924786324786325,0.02001953125,1.84130859375,-0.45068359375,-1.9378662109375,97.45025634765625,232.7117919921875,-41.98290598290598,34.635897435897434,61.32503052503052
02:40.002,0.552734375,2.1513671875,0.748046875,20.91217041015625,-44.952392578125,-43.76220703125,-29.687912087912085,20.54163614163614,-8.546520146520146,-0.06787109375,-1.98876953125,0.6201171875,0.213623046875,-2.532958984375,-2.64739990234375,51.279120879120875,-96.1108669108669,64.92356532356533,-1.37890625,3.22119140625,-0.6005859375,-1.9378662109375,97.45025634765625,232.7117919921875,-64.47374847374847,36.73504273504273,31.936996336996337
02:40.928,0.5205078125,2.3798828125,0.5126953125,43.9300537109375,-80.34515380859375,-135.467529296875,-27.738705738705736,28.638339438339436,-13.494505494505495,-0.49365234375,-1.8349609375,0.70166015625,-7.4615478515625,25.299072265625,-17.059326171875,62.074725274725274,-90.11330891330891,73.91990231990232,0.5751953125,0.26416015625,-0.48291015625,-55.328369140625,-54.9774169921875,-33.74481201171875,-35.08571428571428,53.078388278388275,54.727716727716725
02:41.855,0.60498046875,1.8564453125,0.42041015625,35.28594970703125,88.836669921875,-2.716064453125,-49.329914529914525,23.54041514041514,-41.832967032967034,-0.86474609375,-1.8408203125,0.11279296875,-45.59326171875,-91.4306640625,34.59930419921875,71.22100122100122,-76.01904761904761,93.71184371184371,-0.24072265625,2.10107421875,-0.30224609375,-13.34381103515625,17.6239013671875,-29.15191650390625,-79.31770451770451,57.27667887667887,-23.99023199023199
02:42.781,0.26806640625,1.73779296875,0.80224609375,69.11468505859375,-10.67352294921875,-81.74896240234375,-68.67203907203907,-13.494505494505495,-33.58632478632479,0.00244140625,-1.68994140625,0.72607421875,-8.12530517578125,-80.84869384765625,27.48870849609375,71.22100122100122,-76.01904761904761,93.71184371184371,-0.39697265625,2.28369140625,-0.7041015625,-10.55908203125,186.40899658203125,114.58587646484375,-79.31770451770451,57.27667887667887,-23.99023199023199
02:43.659,0.36279296875,1.54443359375,0.5,46.6766357421875,16.34979248046875,-60.12725830078125,-45.88131868131868,-11.845177045177044,5.097924297924298,-0.4228515625,-1.73388671875,0.78515625,-10.56671142578125,10.1776123046875,-3.7384033203125,59.825641025641026,-79.46764346764347,102.4083028083028,0.330078125,2.8916015625,-0.6181640625,-38.52081298828125,-19.6990966796875,-119.19403076171875,-84.7155067155067,-7.197069597069596,-61.02515262515262
02:44.487,0.34375,1.64501953125,0.3974609375,19.7906494140625,-8.636474609375,-25.93231201171875,-18.892307692307693,-20.24175824175824,11.695238095238095,-0.27001953125,-1.5185546875,0.25732421875,-2.105712890625,3.4332275390625,3.631591796875,47.53064713064713,-80.21733821733821,93.56190476190476,-0.14501953125,1.99755859375,-0.55517578125,-5.5389404296875,-25.61187744140625,-27.00042724609375,-90.11330891330891,18.892307692307693,-53.97802197802198
02:45.316,0.34375,1.64501953125,0.3974609375,-19.88983154296875,30.87615966796875,39.93988037109375,-14.544078144078144,-18.59242979242979,9.446153846153846,0.2177734375,-1.94189453125,0.66552734375,-10.65826416015625,-34.210205078125,15.90728759765625,38.98412698412698,-80.36727716727717,87.41440781440781,0.0556640625,2.2353515625,0.49658203125,6.66046142578125,-19.7296142578125,-74.066162109375,-48.73015873015873,5.697680097680098,-24.88986568986569
02:46.193,0.18310546875,1.79638671875,0.61669921875,-19.88983154296875,30.87615966796875,39.93988037109375,-14.544078144078144,-18.59242979242979,9.446153846153846,-0.11572265625,-1.7216796875,0.36474609375,9.613037109375,-26.32904052734375,-4.75311279296875,39.433943833943836,-82.16654456654456,85.31526251526252,-0.43115234375,2.19580078125,0.0517578125,55.2825927734375,18.6767578125,228.85894775390625,-46.93089133089133,18.742368742368743,-4.947985347985348
02:47.022,0.46923828125,2.07568359375,0.77294921875,-47.4853515625,55.30548095703125,121.7193603515625,-23.54041514041514,-15.143833943833943,3.1487179487179486,-0.11572265625,-1.7216796875,0.36474609375,9.613037109375,-26.32904052734375,-4.75311279296875,34.336019536019535,-82.16654456654456,85.01538461538462,-0.43115234375,2.19580078125,0.0517578125,55.2825927734375,18.6767578125,228.85894775390625,-78.11819291819292,23.24053724053724,-38.98412698412698
02:47.851,0.52099609375,1.8759765625,0.33349609375,-51.03302001953125,-36.24725341796875,65.338134765625,-27.288888888888888,-10.045909645909646,-4.498168498168498,-0.37158203125,-1.744140625,0.51416015625,4.38690185546875,78.69720458984375,-21.03424072265625,34.336019536019535,-82.16654456654456,85.01538461538462,-0.134765625,2.1962890625,-0.48876953125,-30.9906005859375,-33.25653076171875,-53.68804931640625,-78.11819291819292,23.24053724053724,-38.98412698412698
02:48.680,0.31494140625,1.65234375,0.857421875,8.8348388671875,-72.418212890625,-9.37652587890625,-21.59120879120879,-14.244200244200243,-9.596092796092796,0.048828125,-1.83984375,0.6123046875,13.61083984375,45.46356201171875,-3.28826904296875,33.43638583638584,-80.51721611721611,80.96703296703296,-0.23193359375,1.986328125,-0.32568359375,34.9578857421875,-15.7623291015625,-14.97650146484375,-44.08205128205128,12.594871794871795,-40.93333333333333
02:49.557,0.9462890625,3.0341796875,0.1494140625,-0.19073486328125,-207.45849609375,-135.36834716796875,-31.337240537240536,12.145054945054945,-46.63101343101343,-0.30126953125,-2.26953125,0.6767578125,23.82659912109375,38.79547119140625,-37.750244140625,39.883760683760684,-79.76752136752137,53.52820512820512,0.05029296875,1.48046875,-0.064453125,-11.66534423828125,-8.7890625,209.6405029296875,-33.43638583638584,61.624908424908426,57.27667887667887
02:50.436,0.41162109375,1.57421875,0.6884765625,19.08111572265625,-32.2265625,-49.3316650390625,-21.741147741147742,29.687912087912085,-22.04102564102564,-0.26025390625,-1.6748046875,0.7294921875,-1.15966796875,55.10711669921875,-19.2718505859375,46.33113553113553,-91.31282051282051,50.52942612942613,0.13427734375,3.431640625,-0.4873046875,-7.965087890625,-57.60955810546875,-123.199462890625,-41.38315018315018,54.727716727716725,58.326251526251525
02:51.263,0.41162109375,1.57421875,0.6884765625,19.08111572265625,-32.2265625,-49.3316650390625,-36.435164835164834,10.945543345543346,-20.24175824175824,-0.4423828125,-1.59033203125,0.4443359375,-28.69415283203125,-40.55023193359375,27.6031494140625,51.57899877899878,-90.41318681318681,60.57533577533577,-0.1630859375,1.99951171875,-0.49853515625,-10.8184814453125,2.227783203125,-39.459228515625,-62.82442002442002,31.487179487179485,23.690354090354088
02:52.238,0.9384765625,2.10400390625,0.26123046875,-42.82379150390625,81.512451171875,135.589599609375,-29.388034188034187,15.293772893772893,-8.246642246642246,-0.109375,-1.7197265625,0.7666015625,1.6632080078125,-20.50018310546875,20.32470703125,49.479853479853475,-94.61147741147741,64.17387057387057,0.197265625,1.89990234375,-0.51513671875,12.63427734375,-52.1240234375,-43.95294189453125,-39.733821733821735,38.234432234432234,58.176312576312576
02:53.116,0.451171875,1.92724609375,0.7646484375,-26.40533447265625,37.9486083984375,55.8013916015625,-29.388034188034187,15.293772893772893,-8.246642246642246,-0.2509765625,-2.048828125,0.70849609375,-2.5177001953125,-15.60211181640625,6.37054443359375,54.27789987789988,-92.06251526251526,66.72283272283272,-0.787109375,2.31640625,-2.2705078125,-135.040283203125,249.99237060546875,85.51025390625,-70.32136752136752,41.38315018315018,26.23931623931624
02:54.091,0.60595703125,2.06201171875,0.66552734375,0.7171630859375,22.918701171875,-2.0904541015625,-36.58510378510378,26.389255189255188,-27.88864468864469,-0.54443359375,-1.75830078125,0.60888671875,-14.42718505859375,-91.339111328125,27.7557373046875,65.22344322344323,-88.3140415140415,85.46520146520146,-0.12890625,2.36572265625,-0.099609375,-64.3768310546875,-7.62939453125,-22.5067138671875,-67.92234432234432,59.22588522588522,-9.446153846153846
02:55.017,0.67822265625,2.44775390625,0.32177734375,23.35357666015625,104.42352294921875,122.9095458984375,-50.37948717948718,30.737484737484735,-39.733821733821735,-0.54443359375,-1.75830078125,0.60888671875,-14.42718505859375,-91.339111328125,27.7557373046875,64.32380952380952,-76.01904761904761,100.0092796092796,-0.12890625,2.36572265625,-0.099609375,-64.3768310546875,-7.62939453125,-22.5067138671875,-72.42051282051281,51.57899877899878,-32.08693528693529
02:55.846,0.64599609375,2.623046875,0.5087890625,-6.55364990234375,80.45196533203125,62.3626708984375,-63.724053724053725,-6.297435897435897,-22.34090354090354,-0.32958984375,-2.3701171875,0.8984375,3.13568115234375,-57.31201171875,41.1529541015625,64.32380952380952,-76.01904761904761,100.0092796092796,0.1728515625,1.9892578125,-0.53466796875,0.2288818359375,-19.90509033203125,-40.7562255859375,-72.42051282051281,51.57899877899878,-32.08693528693529
02:56.675,0.7041015625,1.49755859375,0.8193359375,5.2337646484375,16.571044921875,19.6075439453125,-55.47741147741147,-5.697680097680098,-30.137728937728937,-0.0673828125,-1.603515625,0.6083984375,-7.74383544921875,-2.6397705078125,2.63214111328125,50.52942612942613,-77.81831501831502,92.66227106227106,-2.68798828125,2.21337890625,-0.14990234375,-8.11004638671875,-84.16748046875,-36.27777099609375,-65.67326007326007,-1.4993894993894994,-41.23321123321123
02:57.601,0.72021484375,1.87939453125,0.7177734375,-33.27178955078125,-26.6571044921875,-58.03680419921875,-45.13162393162393,-5.697680097680098,-32.08693528693529,-0.29150390625,-2.3056640625,1.15283203125,32.32574462890625,17.82989501953125,-23.12469482421875,40.78339438339438,-78.56800976800976,87.41440781440781,0.271484375,0.88134765625,-0.189453125,-39.83306884765625,-13.3514404296875,146.1639404296875,-37.784615384615385,4.798046398046398,-26.08937728937729
02:58.430,0.49853515625,1.9423828125,0.19580078125,-67.02423095703125,11.40594482421875,154.53338623046875,-15.593650793650793,-20.39169719169719,2.6989010989010986,-0.33154296875,-1.54638671875,0.81787109375,-12.9852294921875,-29.70123291015625,3.753662109375,39.883760683760684,-76.91868131868132,85.46520146520146,-0.3173828125,2.5673828125,-0.37255859375,-36.39984130859375,-27.34375,-93.11676025390625,-49.92967032967033,24.589987789987788,-26.539194139194137
02:59.307,0.49853515625,1.9423828125,0.19580078125,-67.02423095703125,11.40594482421875,154.53338623046875,-10.345787545787545,-16.043467643467643,13.494505494505495,-0.3515625,-1.904296875,0.62890625,-1.8463134765625,7.476806640625,-5.24139404296875,31.936996336996337,-83.51599511599511,88.0141636141636,-0.064453125,1.8779296875,-0.66455078125,-11.86370849609375,-24.9176025390625,-18.829345703125,-67.02271062271062,29.83785103785104,-22.19096459096459
03:00.136,0.18310546875,2.32470703125,0.5595703125,-52.0172119140625,-32.5775146484375,36.7279052734375,-10.345787545787545,-16.043467643467643,13.494505494505495,0.1005859375,-1.74365234375,0.75341796875,4.61578369140625,66.680908203125,-43.98345947265625,31.037362637362637,-79.61758241758241,80.36727716727717,-0.12109375,1.76611328125,-0.50830078125,19.11163330078125,-237.93792724609375,22.9644775390625,-26.23931623931624,14.244200244200243,-28.488400488400487
03:00.965,0.60498046875,1.71875,0.97900390625,13.05389404296875,-83.1146240234375,-20.82061767578125,-23.54041514041514,-14.544078144078144,-16.193406593406593,0.1005859375,-1.74365234375,0.75341796875,4.61578369140625,66.680908203125,-43.98345947265625,38.83418803418803,-75.71916971916971,60.57533577533577,-0.12109375,1.76611328125,-0.50830078125,19.11163330078125,-237.93792724609375,22.9644775390625,-35.23565323565323,60.125518925518925,31.187301587301587
