time,hand_accelerometer_x,hand_accelerometer_y,hand_accelerometer_z,hand_gyroscope_x,hand_gyroscope_y,hand_gyroscope_z,hand_magnetometer_x,hand_magnetometer_y,hand_magnetometer_z,ankle_accelerometer_x,ankle_accelerometer_y,ankle_accelerometer_z,ankle_gyroscope_x,ankle_gyroscope_y,ankle_gyroscope_z,ankle_magnetometer_x,ankle_magnetometer_y,ankle_magnetometer_z,chest_accelerometer_x,chest_accelerometer_y,chest_accelerometer_z,chest_gyroscope_x,chest_gyroscope_y,chest_gyroscope_z,chest_magnetometer_x,chest_magnetometer_y,chest_magnetometer_z
49:12.301,0.11474609375,0.09326171875,2.0400390625,-4.5318603515625,0.26702880859375,1.73187255859375,-15.743589743589743,-25.18974358974359,52.628571428571426,-0.228515625,-1.9296875,0.2734375,-5.7525634765625,-8.39996337890625,3.37982177734375,55.32747252747252,-67.92234432234432,54.427838827838826,-1.3232421875,1.42822265625,0.54638671875,-2.3345947265625,0.9765625,0.91552734375,-53.82808302808303,71.22100122100122,-96.7106227106227
49:13.179,0.1142578125,0.0986328125,2.0361328125,-1.5716552734375,-0.49591064453125,-0.17547607421875,-11.845177045177044,-29.388034188034187,55.32747252747252,-0.24658203125,-1.92333984375,0.2880859375,-3.143310546875,8.8043212890625,1.5106201171875,53.52820512820512,-65.67326007326007,51.87887667887668,-1.32958984375,1.42822265625,0.52685546875,-2.2430419921875,0.22125244140625,1.8310546875,-51.72893772893773,71.22100122100122,-98.21001221001221
49:14.056,0.10791015625,0.087890625,2.0439453125,-0.5340576171875,1.64794921875,-0.29754638671875,-12.894749694749695,-28.338461538461537,52.928449328449325,-0.23583984375,-1.92822265625,0.3232421875,-2.166748046875,1.62506103515625,1.03759765625,54.577777777777776,-67.17264957264958,49.77973137973138,-1.3212890625,1.43505859375,0.52685546875,-0.75531005859375,0.86212158203125,1.52587890625,-52.928449328449325,71.82075702075701,-98.35995115995115
49:14.934,0.1259765625,0.0771484375,2.03125,-1.52587890625,0.67138671875,0.946044921875,-13.644444444444444,-27.738705738705736,53.67814407814408,-0.267578125,-1.89794921875,0.30712890625,-3.04412841796875,-0.6103515625,1.922607421875,53.97802197802198,-68.52210012210011,50.67936507936508,-1.330078125,1.43017578125,0.5380859375,-0.48828125,0.66375732421875,1.53350830078125,-51.129181929181925,71.37094017094017,-97.01050061050061
49:15.811,0.1259765625,0.0771484375,2.03125,-1.190185546875,1.7852783203125,0.45013427734375,-12.294993894993894,-28.338461538461537,55.92722832722833,-0.23779296875,-1.91455078125,0.32470703125,-4.5318603515625,-1.6937255859375,0.5645751953125,55.77728937728938,-68.07228327228327,52.17875457875458,-1.3173828125,1.44482421875,0.5205078125,-0.4119873046875,0.55694580078125,1.5869140625,-52.778510378510376,71.97069597069597,-98.21001221001221
49:16.689,0.12255859375,0.0771484375,2.052734375,-1.190185546875,1.7852783203125,0.45013427734375,-12.744810744810744,-27.88864468864469,55.47741147741147,-0.22216796875,-1.9111328125,0.31298828125,-5.24139404296875,-11.84844970703125,-0.7171630859375,54.727716727716725,-66.27301587301586,49.92967032967033,-1.32568359375,1.4228515625,0.5244140625,-4.17327880859375,-0.0152587890625,2.41851806640625,-53.078388278388275,70.47130647130646,-99.25958485958486
49:17.615,0.1064453125,0.06884765625,2.03076171875,-4.15802001953125,-2.2430419921875,1.01470947265625,-12.744810744810744,-27.88864468864469,55.47741147741147,-0.1591796875,-1.92822265625,0.337890625,-2.7008056640625,0.45013427734375,2.00653076171875,54.727716727716725,-68.07228327228327,52.47863247863248,-1.31640625,1.43701171875,0.521484375,-0.80108642578125,0.9765625,1.8157958984375,-52.628571428571426,71.82075702075701,-98.06007326007325
49:18.541,0.1171875,0.09423828125,2.02880859375,-1.65557861328125,1.01470947265625,-0.06866455078125,-12.444932844932845,-28.488400488400487,56.227106227106226,-0.1591796875,-1.92822265625,0.337890625,-3.73077392578125,-1.19781494140625,1.03759765625,56.07716727716728,-66.87277167277168,56.227106227106226,-1.31640625,1.43701171875,0.521484375,-1.129150390625,0.84686279296875,1.708984375,-52.628571428571426,72.57045177045177,-98.06007326007325
49:19.419,0.10595703125,0.091796875,2.0263671875,-0.5340576171875,1.80816650390625,-1.251220703125,-12.594871794871795,-28.788278388278385,55.92722832722833,-0.162109375,-1.931640625,0.3408203125,-3.73077392578125,-1.19781494140625,1.03759765625,54.427838827838826,-66.57289377289376,54.877655677655675,-1.32177734375,1.4453125,0.5244140625,-1.129150390625,0.84686279296875,1.708984375,-53.078388278388275,71.22100122100122,-97.16043956043956
49:20.296,0.09619140625,0.11572265625,2.0341796875,-0.3814697265625,1.678466796875,-1.2359619140625,-13.494505494505495,-28.488400488400487,56.227106227106226,-0.1806640625,-1.91357421875,0.33935546875,-6.561279296875,0.7781982421875,-1.57928466796875,54.427838827838826,-66.57289377289376,54.877655677655675,-1.32373046875,1.44970703125,0.5263671875,-0.75531005859375,0.8087158203125,1.64031982421875,-53.078388278388275,71.22100122100122,-97.16043956043956
49:21.174,0.09375,0.23291015625,2.02001953125,3.9825439453125,6.103515625,-0.3662109375,-12.744810744810744,-27.438827838827837,54.877655677655675,0.0341796875,-1.9482421875,0.150390625,-1.1749267578125,2.655029296875,1.251220703125,55.17753357753357,-67.32258852258852,54.877655677655675,-1.31103515625,1.4453125,0.51513671875,-0.34332275390625,0.92315673828125,1.99127197265625,-52.628571428571426,70.02148962148962,-97.01050061050061
49:22.051,0.30810546875,0.0390625,2.00732421875,-18.65386962890625,-6.90460205078125,71.59423828125,-22.34090354090354,-26.83907203907204,49.329914529914525,-0.08984375,-1.865234375,0.38720703125,1.80816650390625,0.66375732421875,7.85064697265625,56.526984126984125,-69.12185592185592,48.88009768009768,-1.31494140625,1.46630859375,0.5185546875,-2.31170654296875,1.24359130859375,0.91552734375,-53.67814407814408,71.82075702075701,-97.31037851037851
49:22.929,0.23291015625,0.17431640625,1.97412109375,-29.68597412109375,-34.3170166015625,91.69769287109375,2.548962148962149,-26.23931623931624,58.026373626373626,-0.10595703125,-1.9296875,0.38525390625,-3.4637451171875,-1.0223388671875,1.2664794921875,55.17753357753357,-68.82197802197803,58.77606837606837,-1.31787109375,1.44384765625,0.5380859375,-2.03704833984375,1.312255859375,1.33514404296875,-53.52820512820512,71.97069597069597,-96.7106227106227
49:23.806,0.23291015625,0.17431640625,1.97412109375,-15.838623046875,-28.99169921875,57.4188232421875,-20.99145299145299,-25.18974358974359,50.52942612942613,-0.06640625,-1.93994140625,0.3544921875,-3.1585693359375,1.5869140625,0.9613037109375,55.47741147741147,-68.82197802197803,57.72649572649573,-1.3115234375,1.4560546875,0.5224609375,-1.15203857421875,0.8544921875,1.7547607421875,-51.72893772893773,72.72039072039071,-97.76019536019535
49:24.732,0.58642578125,0.22509765625,1.9736328125,-12.75634765625,-36.1480712890625,36.8804931640625,-32.98656898656898,-19.19218559218559,48.88009768009768,-0.076171875,-1.93603515625,0.349609375,-4.63104248046875,-0.18310546875,0.49591064453125,55.47741147741147,-68.82197802197803,56.676923076923075,-1.31787109375,1.439453125,0.52099609375,-1.52587890625,1.0833740234375,1.41143798828125,-52.32869352869353,70.92112332112332,-97.46031746031746
49:25.805,0.35400390625,0.3876953125,2.0556640625,-20.86639404296875,-2.58636474609375,81.390380859375,-36.285225885225884,-17.692796092796094,47.53064713064713,-0.1953125,-1.9130859375,0.33837890625,-12.969970703125,24.48272705078125,-5.34820556640625,54.877655677655675,-67.92234432234432,56.227106227106226,-1.33837890625,1.447265625,0.49658203125,-1.21307373046875,1.46484375,0.60272216796875,-52.17875457875458,70.02148962148962,-99.1096459096459
49:26.829,0.26171875,0.11376953125,2.125,-21.01898193359375,-16.88385009765625,108.10089111328125,-24.44004884004884,-19.34212454212454,52.47863247863248,0.017578125,-1.95751953125,0.26806640625,-1.77764892578125,0.2593994140625,1.57928466796875,56.526984126984125,-70.62124542124542,50.67936507936508,-1.3369140625,1.43505859375,0.51171875,-2.25830078125,1.312255859375,1.15966796875,-50.52942612942613,73.02026862026862,-99.85934065934066
49:27.706,0.16162109375,-0.005859375,1.9619140625,-21.01898193359375,-16.88385009765625,108.10089111328125,-19.64200244200244,-22.04102564102564,55.027594627594624,0.0078125,-1.94580078125,0.29345703125,-4.94384765625,2.0294189453125,1.46484375,58.176312576312576,-72.27057387057387,50.52942612942613,-1.32763671875,1.443359375,0.5,-0.95367431640625,0.92315673828125,1.73187255859375,-51.87887667887668,71.82075702075701,-100.45909645909646
49:28.632,0.1572265625,0.3115234375,2.078125,-12.3443603515625,-19.9432373046875,29.4952392578125,-19.64200244200244,-22.04102564102564,55.027594627594624,0.0576171875,-1.935546875,0.28125,-1.67083740234375,0.5645751953125,0.17547607421875,59.07594627594627,-73.17020757020757,48.88009768009768,-1.333984375,1.43408203125,0.494140625,-0.3814697265625,0.7781982421875,2.38037109375,-51.129181929181925,71.37094017094017,-99.4095238095238
49:29.510,0.55029296875,0.271484375,1.927734375,-19.744873046875,-9.62066650390625,81.52008056640625,-35.08571428571428,-13.794383394383393,50.52942612942613,0.0576171875,-1.935546875,0.28125,-4.35638427734375,-0.18310546875,4.64630126953125,57.42661782661782,-72.72039072039071,52.32869352869353,-1.333984375,1.43408203125,0.494140625,-1.12152099609375,0.91552734375,1.77001953125,-51.279120879120875,70.92112332112332,-98.50989010989011
49:30.387,0.1513671875,0.1884765625,1.95263671875,-17.4102783203125,-21.3165283203125,120.44525146484375,-31.787057387057384,-16.043467643467643,50.37948717948718,-0.0341796875,-1.95263671875,0.31787109375,-4.35638427734375,-0.18310546875,4.64630126953125,59.52576312576312,-72.12063492063491,49.329914529914525,-1.3330078125,1.43408203125,0.52197265625,-1.12152099609375,0.91552734375,1.77001953125,-50.22954822954823,71.22100122100122,-99.25958485958486
49:31.314,-0.9365234375,0.41259765625,2.05322265625,-12.603759765625,-0.60272216796875,23.5748291015625,-16.49328449328449,-24.14017094017094,51.279120879120875,-0.2001953125,-1.91015625,0.2890625,4.37164306640625,-24.7650146484375,18.8446044921875,59.52576312576312,-72.12063492063491,49.329914529914525,-1.33642578125,1.43017578125,0.548828125,-4.1961669921875,1.0528564453125,3.79180908203125,-50.22954822954823,71.22100122100122,-99.25958485958486
49:32.191,0.134765625,0.12939453125,2.01416015625,7.1868896484375,5.91278076171875,-68.54248046875,2.6989010989010986,-23.54041514041514,63.27423687423687,-0.0732421875,-1.9169921875,0.4072265625,-3.51715087890625,-4.18853759765625,-1.1444091796875,56.07716727716728,-69.42173382173382,52.928449328449325,-1.31298828125,1.4482421875,0.51953125,0.213623046875,0.80108642578125,1.617431640625,-53.82808302808303,71.97069597069597,-100.6090354090354
49:33.069,0.5927734375,0.2998046875,2.00537109375,-5.65338134765625,-1.59454345703125,4.119873046875,-22.49084249084249,-18.44249084249084,52.928449328449325,-0.05322265625,-1.95166015625,0.35888671875,-0.77056884765625,-0.66375732421875,-0.31280517578125,55.32747252747252,-68.22222222222221,57.57655677655677,-1.3212890625,1.44580078125,0.51806640625,-0.54168701171875,1.1138916015625,1.96075439453125,-54.877655677655675,70.92112332112332,-100.3091575091575
49:33.946,0.13916015625,0.06103515625,1.97705078125,-11.41357421875,-10.80322265625,44.6929931640625,-30.287667887667887,-18.44249084249084,50.52942612942613,-0.08642578125,-1.9345703125,0.37255859375,-3.1890869140625,0.91552734375,2.5482177734375,57.12673992673992,-66.42295482295482,57.57655677655677,-1.31396484375,1.45361328125,0.51318359375,-1.42669677734375,0.9307861328125,1.45721435546875,-52.32869352869353,71.22100122100122,-99.25958485958486
49:34.921,0.12646484375,0.017578125,2.01953125,-6.4239501953125,-5.9967041015625,29.96826171875,-26.83907203907204,-18.29255189255189,51.429059829059824,-0.064453125,-1.91064453125,0.38232421875,-2.349853515625,-0.9002685546875,2.2125244140625,55.77728937728938,-68.82197802197803,57.42661782661782,-1.298828125,1.47119140625,0.517578125,1.1444091796875,1.6021728515625,1.7242431640625,-51.129181929181925,72.57045177045177,-98.06007326007325
49:35.799,0.12646484375,0.017578125,2.01953125,-16.39556884765625,1.2359619140625,104.42352294921875,-22.34090354090354,-19.941880341880342,52.02881562881563,-0.064453125,-1.90771484375,0.4111328125,-4.38690185546875,-0.34332275390625,3.72314453125,54.727716727716725,-69.12185592185592,57.72649572649573,-1.31591796875,1.447265625,0.5224609375,-1.59454345703125,0.98419189453125,1.53350830078125,-53.078388278388275,70.47130647130646,-98.809768009768
49:36.676,0.32177734375,0.08544921875,2.15869140625,-16.39556884765625,1.2359619140625,104.42352294921875,-15.893528693528692,-22.79072039072039,54.12796092796093,-0.080078125,-1.93701171875,0.41259765625,-4.1046142578125,-0.28228759765625,5.615234375,56.826862026862024,-67.92234432234432,58.326251526251525,-1.32177734375,1.44140625,0.52490234375,-1.48773193359375,0.8544921875,1.65557861328125,-52.928449328449325,72.87032967032967,-98.35995115995115
49:37.554,-0.140625,0.11083984375,2.13916015625,-10.3302001953125,2.105712890625,109.7259521484375,-15.893528693528692,-22.79072039072039,54.12796092796093,-0.080078125,-1.93701171875,0.41259765625,-2.1820068359375,-0.67138671875,5.16510009765625,55.32747252747252,-68.22222222222221,59.67570207570208,-1.31640625,1.44482421875,0.5244140625,-1.97601318359375,1.09100341796875,1.38092041015625,-51.72893772893773,70.92112332112332,-99.85934065934066
49:38.431,-0.1416015625,0.12646484375,2.01708984375,-13.5650634765625,-10.64300537109375,79.76531982421875,-7.946764346764346,-23.690354090354088,55.92722832722833,-0.12744140625,-1.91015625,0.3681640625,-2.1820068359375,-0.67138671875,5.16510009765625,54.27789987789988,-67.92234432234432,57.57655677655677,-1.31640625,1.44482421875,0.5244140625,-1.97601318359375,1.09100341796875,1.38092041015625,-53.52820512820512,71.22100122100122,-98.809768009768
49:39.309,-0.31103515625,0.27734375,2.0556640625,-12.725830078125,-7.3699951171875,69.366455078125,2.848840048840049,-24.14017094017094,59.67570207570208,-0.12841796875,-1.908203125,0.369140625,-3.48663330078125,0.52642822265625,5.06591796875,54.27789987789988,-67.92234432234432,57.57655677655677,-1.314453125,1.44873046875,0.53857421875,-0.23651123046875,0.51116943359375,1.434326171875,-53.52820512820512,71.22100122100122,-98.809768009768
49:40.186,-0.55517578125,0.25341796875,2.03662109375,-4.0283203125,-0.41961669921875,33.68377685546875,8.546520146520146,-22.04102564102564,60.425396825396824,-0.10986328125,-1.94677734375,0.40478515625,-1.6326904296875,-3.7689208984375,0.1373291015625,55.77728937728938,-69.12185592185592,59.07594627594627,-1.31591796875,1.44873046875,0.5234375,-0.579833984375,0.43487548828125,1.8157958984375,-53.52820512820512,69.72161172161172,-98.50989010989011
49:41.064,-0.1279296875,0.19580078125,2.06689453125,2.69317626953125,4.1961669921875,-30.487060546875,7.796825396825397,-22.64078144078144,61.17509157509157,-0.07861328125,-1.9013671875,0.38525390625,-1.83868408203125,-0.00762939453125,3.4027099609375,56.526984126984125,-68.07228327228327,58.026373626373626,-1.310546875,1.46337890625,0.51513671875,0.396728515625,0.5950927734375,1.9378662109375,-52.628571428571426,71.82075702075701,-98.35995115995115
49:41.941,-0.2451171875,0.189453125,1.998046875,14.7705078125,0.91552734375,-100.54779052734375,6.597313797313797,-22.79072039072039,59.975579975579976,-0.1064453125,-1.91259765625,0.38232421875,-2.3040771484375,0.00762939453125,-2.6092529296875,53.52820512820512,-68.97191697191697,58.626129426129424,-1.318359375,1.4521484375,0.51123046875,-0.4730224609375,0.60272216796875,1.89971923828125,-51.279120879120875,73.02026862026862,-98.21001221001221
49:42.819,-0.2451171875,0.189453125,1.998046875,17.5628662109375,28.6407470703125,-129.90570068359375,-8.246642246642246,-24.29010989010989,56.526984126984125,-0.06787109375,-1.9267578125,0.40673828125,-4.47845458984375,2.05230712890625,-1.800537109375,55.77728937728938,-67.32258852258852,59.07594627594627,-1.30419921875,1.46240234375,0.51806640625,-1.06048583984375,0.67138671875,1.30462646484375,-53.228327228327224,72.12063492063491,-99.4095238095238
49:43.696,-0.31005859375,0.134765625,2.060546875,17.5628662109375,28.6407470703125,-129.90570068359375,-10.795604395604395,-20.841514041514042,54.577777777777776,-0.10107421875,-1.9150390625,0.37939453125,-4.28009033203125,7.0953369140625,-1.28936767578125,56.07716727716728,-69.72161172161172,59.67570207570208,-1.3095703125,1.46435546875,0.52294921875,-1.30462646484375,1.02996826171875,1.18255615234375,-52.32869352869353,71.52087912087912,-98.21001221001221
49:44.622,-0.0703125,-0.0224609375,1.97412109375,18.37921142578125,15.350341796875,-96.32110595703125,-10.795604395604395,-20.841514041514042,54.577777777777776,-0.0966796875,-1.92041015625,0.3974609375,-4.55474853515625,0.96893310546875,-1.0528564453125,54.877655677655675,-67.17264957264958,58.626129426129424,-1.3134765625,1.4580078125,0.52294921875,0.40435791015625,0.31280517578125,2.37274169921875,-52.628571428571426,71.82075702075701,-98.06007326007325
49:45.549,0.16162109375,0.02197265625,2.13427734375,15.289306640625,30.83038330078125,-132.46917724609375,-12.894749694749695,-20.54163614163614,53.228327228327224,-0.0966796875,-1.92041015625,0.3974609375,-3.143310546875,-3.44085693359375,-0.93841552734375,54.727716727716725,-69.87155067155066,58.026373626373626,-1.32568359375,1.44482421875,0.5283203125,-0.213623046875,0.5035400390625,1.861572265625,-53.82808302808303,70.17142857142856,-96.4107448107448
49:46.524,0.10107421875,0.10009765625,2.0439453125,12.53509521484375,21.5301513671875,-97.55706787109375,-8.996336996336996,-22.64078144078144,52.928449328449325,-0.0732421875,-1.95458984375,0.36376953125,-0.32806396484375,-3.5247802734375,-2.3040771484375,54.27789987789988,-69.42173382173382,58.626129426129424,-1.32568359375,1.44482421875,0.5283203125,-0.518798828125,0.98419189453125,2.09808349609375,-52.32869352869353,71.52087912087912,-98.21001221001221
49:47.401,0.60546875,-0.01513671875,2.05419921875,4.302978515625,5.9814453125,-52.07061767578125,-19.042246642246642,-19.34212454212454,52.778510378510376,-0.052734375,-1.927734375,0.39404296875,-0.32806396484375,-3.5247802734375,-2.3040771484375,55.47741147741147,-68.52210012210011,60.57533577533577,-1.31298828125,1.44677734375,0.53955078125,-0.518798828125,0.98419189453125,2.09808349609375,-52.628571428571426,71.37094017094017,-98.06007326007325
49:48.376,0.67333984375,-0.21875,1.92529296875,-0.84686279296875,-11.29150390625,16.0675048828125,-20.69157509157509,-20.841514041514042,51.87887667887668,-0.080078125,-1.9365234375,0.41796875,-4.058837890625,-0.06103515625,1.708984375,55.47741147741147,-68.52210012210011,60.57533577533577,-1.3046875,1.455078125,0.5419921875,-0.7476806640625,0.67138671875,1.62506103515625,-52.928449328449325,71.82075702075701,-98.06007326007325
49:49.352,0.4501953125,-0.10546875,1.97265625,-7.62939453125,-14.13726806640625,67.71087646484375,-28.788278388278385,-18.44249084249084,50.829304029304026,-0.08154296875,-1.92236328125,0.4033203125,-3.6163330078125,1.04522705078125,3.41796875,53.67814407814408,-68.82197802197803,59.07594627594627,-1.31103515625,1.453125,0.51708984375,-1.3885498046875,1.19781494140625,1.46484375,-52.17875457875458,71.07106227106227,-98.35995115995115
49:50.326,0.34716796875,-0.04345703125,2.021484375,-15.37322998046875,-18.8446044921875,104.0496826171875,-17.992673992673993,-20.39169719169719,52.778510378510376,-0.0673828125,-1.927734375,0.392578125,-1.99127197265625,-1.01470947265625,3.66973876953125,55.77728937728938,-68.07228327228327,59.07594627594627,-1.3076171875,1.4638671875,0.52783203125,-0.92315673828125,1.0833740234375,1.51824951171875,-51.87887667887668,70.62124542124542,-97.31037851037851
49:51.399,0.1748046875,-0.02099609375,2.02734375,-32.18841552734375,-19.989013671875,104.49981689453125,-15.593650793650793,-22.79072039072039,52.778510378510376,-0.05224609375,-1.9345703125,0.4111328125,-3.37982177734375,1.57928466796875,3.936767578125,54.877655677655675,-67.92234432234432,58.92600732600732,-1.3115234375,1.44775390625,0.52783203125,-0.92315673828125,1.0833740234375,1.51824951171875,-52.32869352869353,70.17142857142856,-98.21001221001221
49:52.325,0.33935546875,-0.06005859375,1.90576171875,-31.4788818359375,-35.91156005859375,112.43438720703125,-17.992673992673993,-21.44126984126984,52.778510378510376,-0.068359375,-1.89306640625,0.39794921875,-1.739501953125,-0.7476806640625,6.05010986328125,54.727716727716725,-69.12185592185592,60.87521367521367,-1.3056640625,1.458984375,0.52978515625,-0.75531005859375,0.5645751953125,1.6632080078125,-52.32869352869353,71.22100122100122,-98.50989010989011
49:53.251,0.2734375,0.125,2.12841796875,-33.30230712890625,-42.28973388671875,81.4208984375,-15.443711843711844,-21.59120879120879,54.577777777777776,-0.0390625,-1.9306640625,0.38134765625,-2.3040771484375,-2.15911865234375,6.12640380859375,54.577777777777776,-67.17264957264958,59.975579975579976,-1.30078125,1.44970703125,0.52978515625,-1.7242431640625,0.640869140625,1.48773193359375,-52.32869352869353,71.22100122100122,-98.50989010989011
49:54.129,0.23876953125,0.31494140625,1.79541015625,-17.96722412109375,-32.09686279296875,35.72845458984375,-28.788278388278385,-18.742368742368743,48.88009768009768,0.0,-1.89501953125,0.41748046875,-2.2430419921875,-0.0457763671875,-0.152587890625,56.07716727716728,-68.67203907203907,60.72527472527472,-1.30419921875,1.46142578125,0.52880859375,-0.99945068359375,0.79345703125,1.8768310546875,-52.628571428571426,73.91990231990232,-98.06007326007325
49:55.055,1.0556640625,0.390625,2.1005859375,6.591796875,-5.47027587890625,-4.486083984375,-38.53431013431013,-13.644444444444444,45.88131868131868,0.0,-1.9296875,0.40966796875,-1.7242431640625,-2.6092529296875,-1.50299072265625,54.877655677655675,-70.17142857142856,59.975579975579976,-1.314453125,1.45751953125,0.52197265625,-0.35858154296875,0.8087158203125,2.044677734375,-53.97802197802198,70.32136752136752,-98.06007326007325
49:55.933,0.7236328125,0.24658203125,1.9404296875,4.02069091796875,-0.06866455078125,-27.53448486328125,-40.93333333333333,-12.594871794871795,44.98168498168498,0.0283203125,-1.92041015625,0.427734375,-3.5400390625,-4.8828125,-2.64739990234375,55.47741147741147,-68.82197802197803,59.07594627594627,-1.32080078125,1.4599609375,0.5166015625,0.72479248046875,0.213623046875,2.2125244140625,-52.928449328449325,71.37094017094017,-97.61025641025641
49:56.810,0.7236328125,0.24658203125,1.9404296875,-3.28826904296875,-8.01849365234375,8.47625732421875,-36.58510378510378,-15.143833943833943,46.48107448107448,-0.0166015625,-1.9150390625,0.3994140625,-2.9296875,-0.274658203125,0.81634521484375,53.97802197802198,-69.12185592185592,60.87521367521367,-1.3095703125,1.4541015625,0.54443359375,-0.9765625,0.5950927734375,1.983642578125,-52.17875457875458,72.12063492063491,-99.4095238095238
49:57.688,0.9951171875,0.12646484375,1.9130859375,-3.28826904296875,-8.01849365234375,8.47625732421875,-38.084493284493284,-13.194627594627594,45.88131868131868,0.01904296875,-1.9404296875,0.4140625,-3.80706787109375,5.63812255859375,3.021240234375,55.32747252747252,-69.42173382173382,58.326251526251525,-1.29443359375,1.46533203125,0.52587890625,-2.03704833984375,0.77056884765625,1.25885009765625,-53.82808302808303,71.22100122100122,-98.21001221001221
49:58.565,0.68603515625,0.3076171875,1.96875,-24.169921875,-30.242919921875,58.67767333984375,-38.084493284493284,-13.194627594627594,45.88131868131868,0.01904296875,-1.9404296875,0.4140625,-4.26483154296875,2.35748291015625,-0.16021728515625,56.526984126984125,-70.62124542124542,60.57533577533577,-1.30908203125,1.44580078125,0.5244140625,-0.9307861328125,0.6256103515625,1.94549560546875,-52.928449328449325,72.57045177045177,-97.31037851037851
49:59.443,-0.1142578125,0.39599609375,2.00634765625,-17.34161376953125,14.70947265625,19.03533935546875,-39.733821733821735,-13.494505494505495,44.68180708180708,-0.02392578125,-1.9189453125,0.37109375,-4.26483154296875,2.35748291015625,-0.16021728515625,56.377045177045176,-69.42173382173382,58.326251526251525,-1.30908203125,1.44580078125,0.5244140625,-0.9307861328125,0.6256103515625,1.94549560546875,-53.078388278388275,70.92112332112332,-98.50989010989011
50:00.320,1.07958984375,0.12255859375,1.931640625,4.93621826171875,8.59832763671875,22.97210693359375,-43.03247863247863,-10.045909645909646,45.28156288156288,-0.08056640625,-1.92724609375,0.427734375,-2.0904541015625,-4.82940673828125,-1.495361328125,56.377045177045176,-69.42173382173382,58.326251526251525,-1.3134765625,1.45166015625,0.51953125,-0.19073486328125,0.06103515625,2.6702880859375,-53.078388278388275,70.92112332112332,-98.50989010989011
50:01.198,0.2412109375,-0.04931640625,1.87353515625,-18.19610595703125,-35.94207763671875,22.88818359375,-35.38559218559219,-13.944322344322345,49.030036630036626,-0.1240234375,-1.91162109375,0.4111328125,-5.95855712890625,2.72369384765625,5.4931640625,53.82808302808303,-69.72161172161172,58.326251526251525,-1.31884765625,1.45263671875,0.5322265625,-0.8697509765625,1.07574462890625,1.373291015625,-53.228327228327224,72.87032967032967,-97.31037851037851
50:02.075,0.32275390625,0.0263671875,2.12451171875,-14.82391357421875,-17.8680419921875,102.88238525390625,-28.788278388278385,-16.943101343101343,51.57899877899878,-0.06640625,-1.91796875,0.3955078125,-2.61688232421875,1.861572265625,2.3345947265625,54.27789987789988,-67.47252747252747,58.626129426129424,-1.30615234375,1.466796875,0.52490234375,-1.44195556640625,1.1749267578125,1.04522705078125,-52.928449328449325,71.82075702075701,-98.06007326007325
50:02.953,-0.0908203125,-0.02490234375,1.970703125,-11.25335693359375,-25.96282958984375,121.03271484375,-19.791941391941393,-23.24053724053724,51.72893772893773,-0.087890625,-1.896484375,0.4189453125,-2.593994140625,-1.33514404296875,5.340576171875,54.27789987789988,-70.47130647130646,57.57655677655677,-1.30712890625,1.455078125,0.51953125,-2.25067138671875,1.068115234375,1.0223388671875,-53.078388278388275,70.92112332112332,-97.76019536019535
50:03.830,-0.0908203125,-0.02490234375,1.970703125,-12.054443359375,-21.44622802734375,112.00714111328125,0.4498168498168498,-26.23931623931624,53.97802197802198,-0.0595703125,-1.91748046875,0.40283203125,-2.9754638671875,-1.22833251953125,4.3182373046875,54.877655677655675,-70.17142857142856,58.92600732600732,-1.3095703125,1.4501953125,0.5419921875,-2.044677734375,0.64849853515625,1.47247314453125,-52.928449328449325,72.12063492063491,-98.35995115995115
50:04.708,-0.16357421875,-0.0009765625,2.0732421875,-12.054443359375,-21.44622802734375,112.00714111328125,0.4498168498168498,-23.690354090354088,57.72649572649573,-0.0615234375,-1.95947265625,0.3671875,-2.044677734375,-1.38092041015625,4.58526611328125,55.47741147741147,-67.32258852258852,62.37460317460317,-1.310546875,1.45166015625,0.5244140625,-1.2054443359375,0.8392333984375,1.99127197265625,-52.02881562881563,71.52087912087912,-98.21001221001221
50:05.585,-0.248046875,0.1044921875,2.31884765625,-4.3182373046875,11.71875,88.714599609375,0.4498168498168498,-23.690354090354088,57.72649572649573,-0.0615234375,-1.95947265625,0.3671875,-4.730224609375,12.298583984375,-0.84686279296875,55.17753357753357,-67.77240537240537,59.825641025641026,-1.30322265625,1.45458984375,0.5224609375,0.28228759765625,0.640869140625,1.76239013671875,-52.628571428571426,70.62124542124542,-98.35995115995115
50:06.463,-0.43310546875,0.04150390625,2.0,1.373291015625,-1.861572265625,-38.42926025390625,-6.597313797313797,-25.93943833943834,52.628571428571426,-0.001953125,-1.9814453125,0.4169921875,-4.730224609375,12.298583984375,-0.84686279296875,57.12673992673992,-68.67203907203907,61.47496947496947,-1.30322265625,1.45458984375,0.5224609375,-0.08392333984375,0.74005126953125,1.9683837890625,-52.778510378510376,71.22100122100122,-97.46031746031746
50:07.340,0.56689453125,-0.16650390625,2.0732421875,40.70281982421875,46.68426513671875,-82.35931396484375,8.696459096459096,-22.49084249084249,58.626129426129424,0.05419921875,-1.93408203125,0.423828125,0.1068115234375,4.150390625,-3.448486328125,57.12673992673992,-68.67203907203907,61.47496947496947,-1.310546875,1.45556640625,0.51953125,-0.08392333984375,0.74005126953125,1.9683837890625,-52.778510378510376,71.22100122100122,-97.46031746031746
50:08.218,0.04541015625,0.1103515625,1.95751953125,-39.2303466796875,-21.1029052734375,97.72491455078125,-23.39047619047619,-15.443711843711844,50.37948717948718,-0.0595703125,-1.90673828125,0.3955078125,-1.31988525390625,1.86920166015625,5.5084228515625,55.17753357753357,-70.62124542124542,61.17509157509157,-1.29345703125,1.46728515625,0.53076171875,-3.2806396484375,1.0833740234375,1.21307373046875,-52.17875457875458,72.87032967032967,-96.56068376068376
50:09.095,-0.18310546875,0.21728515625,2.05224609375,-3.4332275390625,-32.38677978515625,-16.99066162109375,-5.247863247863248,-18.742368742368743,60.425396825396824,-0.02978515625,-1.93115234375,0.4296875,-1.64031982421875,5.14984130859375,-0.89263916015625,55.32747252747252,-68.67203907203907,58.626129426129424,-1.3017578125,1.46337890625,0.52392578125,-1.2054443359375,0.90789794921875,1.65557861328125,-53.228327228327224,72.87032967032967,-98.35995115995115
50:10.021,-0.1494140625,0.1396484375,2.05517578125,11.36016845703125,11.05499267578125,-100.7537841796875,3.2986568986568985,-23.39047619047619,56.676923076923075,-0.033203125,-1.93115234375,0.39111328125,-2.96783447265625,1.77001953125,-2.92205810546875,56.377045177045176,-68.22222222222221,59.37582417582417,-1.29833984375,1.4716796875,0.51416015625,-0.54168701171875,0.80108642578125,2.01416015625,-53.67814407814408,71.07106227106227,-96.56068376068376
50:10.899,-0.3681640625,0.10302734375,2.0205078125,10.528564453125,22.8118896484375,-121.80328369140625,-1.9492063492063492,-20.841514041514042,55.62735042735043,-0.04638671875,-1.9541015625,0.3642578125,-5.13458251953125,-1.8463134765625,-1.0986328125,55.77728937728938,-71.07106227106227,59.52576312576312,-1.30712890625,1.45751953125,0.53125,1.77001953125,1.02996826171875,2.838134765625,-51.429059829059824,71.37094017094017,-97.01050061050061
50:11.776,-0.3681640625,0.10302734375,2.0205078125,5.97381591796875,24.16229248046875,-115.05889892578125,1.6493284493284492,-21.44126984126984,58.92600732600732,-0.0537109375,-1.919921875,0.3798828125,-3.37982177734375,5.1116943359375,-2.2125244140625,53.82808302808303,-68.97191697191697,58.626129426129424,-1.3056640625,1.46533203125,0.515625,-0.640869140625,1.01470947265625,1.6632080078125,-54.12796092796093,71.52087912087912,-97.16043956043956
50:12.654,0.43603515625,-0.0498046875,2.080078125,5.97381591796875,24.16229248046875,-115.05889892578125,-15.443711843711844,-22.64078144078144,52.928449328449325,-0.07861328125,-1.9462890625,0.33984375,-4.852294921875,2.37274169921875,-1.10626220703125,54.27789987789988,-68.22222222222221,59.975579975579976,-1.30224609375,1.455078125,0.52392578125,-0.70953369140625,0.69427490234375,1.21307373046875,-52.02881562881563,72.27057387057387,-96.4107448107448
50:13.531,0.4736328125,-0.19775390625,1.998046875,5.6610107421875,21.5606689453125,-69.92340087890625,-15.443711843711844,-22.64078144078144,52.928449328449325,-0.07861328125,-1.9462890625,0.33984375,-3.13568115234375,-1.41143798828125,0.5950927734375,54.427838827838826,-68.07228327228327,58.77606837606837,-1.30224609375,1.455078125,0.52392578125,-1.0833740234375,0.72479248046875,1.76239013671875,-53.52820512820512,72.27057387057387,-97.76019536019535
50:14.409,0.0693359375,0.095703125,2.10546875,-9.2926025390625,0.69427490234375,29.70123291015625,-16.793162393162394,-22.04102564102564,54.27789987789988,-0.06982421875,-1.91357421875,0.3779296875,-3.13568115234375,-1.41143798828125,0.5950927734375,54.27789987789988,-67.47252747252747,58.92600732600732,-1.31005859375,1.45263671875,0.51318359375,-1.07574462890625,0.7781982421875,1.617431640625,-52.778510378510376,71.22100122100122,-97.46031746031746
50:15.335,0.69775390625,-0.08349609375,2.1025390625,-12.02392578125,-10.8642578125,97.3968505859375,-23.84029304029304,-17.992673992673993,53.67814407814408,-0.044921875,-1.92626953125,0.41455078125,-2.716064453125,0.38909912109375,0.8544921875,54.27789987789988,-67.47252747252747,58.92600732600732,-1.3037109375,1.466796875,0.51806640625,-1.07574462890625,0.7781982421875,1.617431640625,-52.778510378510376,71.22100122100122,-97.46031746031746
50:16.213,0.67578125,-0.30908203125,2.017578125,-9.43756103515625,-25.360107421875,62.40081787109375,-17.54285714285714,-22.34090354090354,53.97802197802198,-0.0576171875,-1.93115234375,0.384765625,-1.46484375,-1.76239013671875,0.58746337890625,55.32747252747252,-68.22222222222221,59.37582417582417,-1.3037109375,1.45751953125,0.53125,-2.03704833984375,0.89263916015625,1.007080078125,-51.429059829059824,70.02148962148962,-96.56068376068376
50:17.090,0.58544921875,-0.17138671875,2.06201171875,-15.83099365234375,-24.57427978515625,71.71630859375,-10.645665445665445,-26.83907203907204,50.67936507936508,-0.02783203125,-1.9384765625,0.3994140625,-1.678466796875,-0.25177001953125,3.47137451171875,55.17753357753357,-67.77240537240537,60.125518925518925,-1.302734375,1.45166015625,0.53662109375,-2.38037109375,0.732421875,1.3580322265625,-51.87887667887668,71.37094017094017,-97.31037851037851
50:17.968,0.59130859375,-0.06005859375,2.01171875,-11.90948486328125,-9.246826171875,72.28851318359375,-13.194627594627594,-23.99023199023199,50.37948717948718,-0.0546875,-1.92333984375,0.4228515625,-4.119873046875,-0.335693359375,4.14276123046875,54.877655677655675,-68.22222222222221,61.47496947496947,-1.3056640625,1.46044921875,0.52392578125,-2.29644775390625,0.89263916015625,1.2664794921875,-53.078388278388275,71.97069597069597,-98.50989010989011
50:18.845,0.8046875,-0.04638671875,1.833984375,-12.42828369140625,-33.721923828125,50.78887939453125,-19.042246642246642,-21.14139194139194,51.129181929181925,-0.03857421875,-1.9404296875,0.3974609375,-5.36346435546875,-1.2664794921875,4.63104248046875,55.32747252747252,-70.17142857142856,59.67570207570208,-1.31298828125,1.45361328125,0.53173828125,-3.39508056640625,1.0986328125,0.54931640625,-52.628571428571426,72.12063492063491,-95.96092796092796
50:19.723,0.8046875,-0.04638671875,1.833984375,-12.42828369140625,-33.721923828125,50.78887939453125,-28.488400488400487,-18.742368742368743,50.829304029304026,-0.0693359375,-1.93017578125,0.416015625,-3.79180908203125,-0.67901611328125,1.2969970703125,55.17753357753357,-69.87155067155066,60.125518925518925,-1.29833984375,1.4638671875,0.51220703125,-1.007080078125,0.48828125,1.74713134765625,-53.97802197802198,72.12063492063491,-99.4095238095238
50:20.600,0.41845703125,-0.19580078125,1.97119140625,-6.50787353515625,-27.18353271484375,105.9112548828125,-28.488400488400487,-18.742368742368743,50.829304029304026,-0.05322265625,-1.9111328125,0.37451171875,-3.1890869140625,1.7547607421875,2.777099609375,55.32747252747252,-69.72161172161172,60.425396825396824,-1.3115234375,1.466796875,0.517578125,-2.60162353515625,1.4190673828125,0.28228759765625,-51.72893772893773,70.92112332112332,-95.66105006105006
50:21.478,0.68115234375,0.00634765625,2.0107421875,-9.307861328125,-9.6893310546875,69.1070556640625,-9.596092796092796,-23.24053724053724,51.72893772893773,-0.05322265625,-1.9111328125,0.37451171875,-3.1890869140625,1.7547607421875,2.777099609375,53.52820512820512,-68.67203907203907,59.975579975579976,-1.3115234375,1.466796875,0.517578125,-1.3427734375,1.03759765625,1.51824951171875,-51.72893772893773,71.97069597069597,-96.7106227106227
50:22.355,0.75830078125,-0.2392578125,1.94921875,-2.471923828125,-16.02935791015625,68.64166259765625,-30.437606837606836,-21.741147741147742,49.329914529914525,-0.03759765625,-1.93310546875,0.4072265625,-2.2735595703125,-2.1514892578125,2.70843505859375,53.52820512820512,-68.67203907203907,59.975579975579976,-1.30322265625,1.46533203125,0.51513671875,-1.3427734375,1.03759765625,1.51824951171875,-54.12796092796093,71.52087912087912,-95.06129426129426
50:23.233,0.44921875,-0.17236328125,1.9892578125,-4.87518310546875,-14.07623291015625,109.2987060546875,-13.644444444444444,-22.64078144078144,48.43028083028083,-0.1005859375,-1.89013671875,0.4560546875,-6.40106201171875,-2.00653076171875,4.09698486328125,54.727716727716725,-68.52210012210011,60.125518925518925,-1.2978515625,1.4697265625,0.52392578125,-2.22015380859375,1.8768310546875,0.7781982421875,-54.12796092796093,71.52087912087912,-95.06129426129426
50:24.110,0.33203125,-0.06298828125,2.052734375,-2.20489501953125,-18.6920166015625,98.6480712890625,-11.245421245421245,-24.44004884004884,51.279120879120875,-0.09423828125,-1.89306640625,0.43896484375,-4.14276123046875,-4.150390625,4.79888916015625,55.62735042735043,-68.22222222222221,61.02515262515262,-1.318359375,1.4521484375,0.5341796875,-3.082275390625,1.068115234375,0.885009765625,-51.129181929181925,72.12063492063491,-99.1096459096459
50:24.988,0.31591796875,-0.05322265625,1.94970703125,-20.17974853515625,-41.23687744140625,90.03448486328125,-5.697680097680098,-25.639560439560437,55.77728937728938,-0.0634765625,-1.9033203125,0.4287109375,-8.73565673828125,-5.584716796875,3.59344482421875,55.17753357753357,-70.32136752136752,61.17509157509157,-1.30859375,1.45947265625,0.53173828125,-1.64031982421875,0.83160400390625,1.922607421875,-54.577777777777776,71.52087912087912,-97.46031746031746
50:25.865,0.2529296875,-0.0400390625,1.990234375,3.173828125,-19.23370361328125,94.0704345703125,-4.348229548229548,-25.33968253968254,51.429059829059824,-0.0556640625,-1.92529296875,0.44091796875,-5.04302978515625,-5.07354736328125,4.98199462890625,54.877655677655675,-69.72161172161172,61.47496947496947,-1.314453125,1.4482421875,0.52734375,-1.60980224609375,1.13677978515625,1.54876708984375,-53.52820512820512,69.72161172161172,-96.7106227106227
50:26.743,0.2529296875,-0.0400390625,1.990234375,6.103515625,-17.12799072265625,128.21197509765625,-2.399023199023199,-26.539194139194137,52.17875457875458,-0.06396484375,-1.89892578125,0.44287109375,-6.3629150390625,-10.45989990234375,4.5166015625,56.826862026862024,-68.22222222222221,61.47496947496947,-1.302734375,1.46240234375,0.5361328125,-0.89263916015625,0.69427490234375,1.861572265625,-52.628571428571426,70.32136752136752,-96.26080586080586
50:27.620,0.1767578125,-0.00341796875,2.10205078125,6.103515625,-17.12799072265625,128.21197509765625,11.845177045177044,-26.83907203907204,54.427838827838826,-0.060546875,-1.88818359375,0.455078125,-3.60870361328125,-2.69317626953125,3.02886962890625,55.62735042735043,-67.92234432234432,61.774847374847376,-1.30810546875,1.45458984375,0.52685546875,-2.81524658203125,0.87738037109375,1.12152099609375,-53.52820512820512,71.22100122100122,-97.16043956043956
50:28.595,0.42431640625,-0.1826171875,2.06298828125,-8.85772705078125,-25.24566650390625,126.79290771484375,11.845177045177044,-26.83907203907204,54.427838827838826,-0.0751953125,-1.95166015625,0.4306640625,-4.2724609375,-0.93841552734375,3.204345703125,55.32747252747252,-70.17142857142856,62.074725274725274,-1.3095703125,1.45556640625,0.53369140625,-2.79998779296875,0.70953369140625,1.5411376953125,-52.778510378510376,70.47130647130646,-98.50989010989011
50:29.521,0.4228515625,-0.056640625,2.08349609375,-23.5748291015625,-24.19281005859375,106.964111328125,-4.1982905982905985,-25.489621489621488,55.027594627594624,-0.0751953125,-1.95166015625,0.4306640625,1.65557861328125,-0.5340576171875,1.251220703125,55.32747252747252,-67.92234432234432,61.02515262515262,-1.3095703125,1.45556640625,0.53369140625,-0.9307861328125,0.8544921875,1.65557861328125,-52.32869352869353,72.27057387057387,-99.25958485958486
50:30.399,0.32666015625,0.0029296875,1.91650390625,-13.08441162109375,-26.79443359375,16.9830322265625,-11.845177045177044,-23.39047619047619,52.628571428571426,-0.07080078125,-1.9306640625,0.447265625,1.65557861328125,-0.5340576171875,1.251220703125,55.32747252747252,-67.92234432234432,61.02515262515262,-1.302734375,1.46435546875,0.5224609375,-0.9307861328125,0.8544921875,1.65557861328125,-52.778510378510376,71.97069597069597,-96.7106227106227
50:31.374,1.0400390625,-0.1162109375,1.91943359375,-4.78363037109375,-16.01409912109375,-11.199951171875,-22.79072039072039,-22.04102564102564,51.87887667887668,-0.0205078125,-1.9072265625,0.44873046875,-1.8157958984375,-2.197265625,-2.54058837890625,54.877655677655675,-69.72161172161172,61.47496947496947,-1.30419921875,1.46826171875,0.52099609375,-1.03759765625,0.92315673828125,1.73187255859375,-53.67814407814408,70.62124542124542,-97.31037851037851
50:32.252,1.03857421875,-0.15234375,1.857421875,7.40814208984375,8.5601806640625,-38.84124755859375,-27.438827838827837,-19.49206349206349,49.479853479853475,-0.04150390625,-1.93701171875,0.41796875,3.41033935546875,-4.70733642578125,-6.500244140625,56.377045177045176,-67.92234432234432,62.074725274725274,-1.29345703125,1.47509765625,0.505859375,-0.5340576171875,0.32806396484375,2.044677734375,-53.67814407814408,70.62124542124542,-97.31037851037851
50:33.129,1.0986328125,-0.2724609375,1.86474609375,0.51116943359375,-11.0626220703125,-37.567138671875,-21.44126984126984,-22.64078144078144,47.08083028083028,-0.0087890625,-1.876953125,0.48046875,4.7149658203125,0.11444091796875,-2.03704833984375,56.826862026862024,-69.72161172161172,60.72527472527472,-1.2958984375,1.4619140625,0.51025390625,-0.87738037109375,0.51116943359375,1.739501953125,-52.628571428571426,71.82075702075701,-96.56068376068376
50:34.006,0.93310546875,-0.23291015625,1.93017578125,-0.1678466796875,1.5716552734375,-47.50823974609375,-18.29255189255189,-23.09059829059829,47.83052503052503,-0.0390625,-1.888671875,0.4677734375,2.4261474609375,-4.32586669921875,-3.5247802734375,55.77728937728938,-68.82197802197803,62.67448107448107,-1.2958984375,1.46484375,0.52392578125,-1.16729736328125,0.732421875,1.99127197265625,-53.078388278388275,72.27057387057387,-97.16043956043956
50:34.884,0.9541015625,-0.0546875,1.99853515625,-0.9765625,-15.06805419921875,-43.75457763671875,-15.593650793650793,-23.99023199023199,50.07960927960928,-0.0537109375,-1.9560546875,0.44482421875,5.47027587890625,-3.36456298828125,-2.14385986328125,55.77728937728938,-67.32258852258852,61.624908424908426,-1.30078125,1.45751953125,0.5361328125,0.6256103515625,0.274658203125,2.5787353515625,-53.52820512820512,72.27057387057387,-95.66105006105006
50:35.810,0.9541015625,-0.0546875,1.99853515625,-0.80108642578125,0.22125244140625,-26.4892578125,-17.242979242979242,-20.841514041514042,53.228327228327224,-0.0693359375,-1.89111328125,0.52783203125,6.00433349609375,-5.67626953125,-3.13568115234375,54.577777777777776,-69.72161172161172,61.774847374847376,-1.29541015625,1.47900390625,0.5087890625,-1.495361328125,1.190185546875,2.02178955078125,-52.778510378510376,70.92112332112332,-96.7106227106227
50:36.688,1.46435546875,-0.19287109375,1.77392578125,-0.80108642578125,0.22125244140625,-26.4892578125,-22.64078144078144,-19.941880341880342,50.37948717948718,-0.08349609375,-1.9189453125,0.49169921875,-0.8697509765625,-0.29754638671875,-0.2593994140625,56.377045177045176,-69.42173382173382,62.82442002442002,-1.28759765625,1.46630859375,0.52880859375,-2.1514892578125,0.63323974609375,1.35040283203125,-52.32869352869353,72.27057387057387,-96.4107448107448
50:37.566,1.37353515625,-0.2685546875,1.79345703125,3.82232666015625,1.28173828125,26.3671875,-22.64078144078144,-19.941880341880342,50.37948717948718,-0.08349609375,-1.9189453125,0.49169921875,-0.34332275390625,0.63323974609375,1.2664794921875,56.227106227106226,-68.82197802197803,64.02393162393162,-1.30322265625,1.4658203125,0.53076171875,-1.6632080078125,1.251220703125,0.8392333984375,-53.228327228327224,71.82075702075701,-96.56068376068376
50:38.443,0.93798828125,-0.19091796875,1.890625,-6.4697265625,-20.36285400390625,69.83184814453125,-16.343345543345542,-22.79072039072039,51.72893772893773,-0.01708984375,-1.91796875,0.47314453125,-0.34332275390625,0.63323974609375,1.2664794921875,55.62735042735043,-68.97191697191697,62.52454212454212,-1.30322265625,1.4658203125,0.53076171875,-1.6632080078125,1.251220703125,0.8392333984375,-53.52820512820512,72.27057387057387,-97.16043956043956
50:39.321,0.7861328125,-0.1005859375,1.931640625,-15.80047607421875,-16.99066162109375,65.4144287109375,-16.943101343101343,-25.03980463980464,48.73015873015873,-0.0263671875,-1.9453125,0.47265625,-4.76837158203125,-0.6561279296875,3.63922119140625,55.62735042735043,-68.97191697191697,62.52454212454212,-1.30029296875,1.45556640625,0.51708984375,-2.9144287109375,1.28936767578125,0.9002685546875,-53.52820512820512,72.27057387057387,-97.16043956043956
50:40.198,0.70263671875,-0.00732421875,1.9169921875,0.08392333984375,11.00921630859375,14.86968994140625,-17.692796092796094,-25.03980463980464,48.28034188034188,-0.0419921875,-1.884765625,0.47021484375,0.03814697265625,-2.5787353515625,-0.57220458984375,54.27789987789988,-69.42173382173382,61.02515262515262,-1.294921875,1.46923828125,0.52294921875,-1.77764892578125,1.129150390625,1.83868408203125,-54.727716727716725,70.62124542124542,-97.61025641025641
50:41.075,0.76318359375,0.1455078125,1.87060546875,5.37872314453125,25.93231201171875,14.495849609375,-21.59120879120879,-22.19096459096459,49.62979242979243,-0.01953125,-1.8720703125,0.4775390625,3.12042236328125,-5.82122802734375,-1.77001953125,57.12673992673992,-67.17264957264958,61.774847374847376,-1.30126953125,1.45751953125,0.525390625,-1.62506103515625,0.9765625,1.76239013671875,-52.02881562881563,71.52087912087912,-97.16043956043956
50:41.953,1.14111328125,-0.099609375,1.89501953125,1.31988525390625,12.50457763671875,15.20538330078125,-28.488400488400487,-21.29133089133089,47.83052503052503,-0.03662109375,-1.884765625,0.44921875,-2.655029296875,-2.52532958984375,2.2125244140625,55.77728937728938,-69.87155067155066,61.17509157509157,-1.2958984375,1.45849609375,0.51953125,-2.0751953125,0.79345703125,1.25885009765625,-53.52820512820512,71.22100122100122,-98.50989010989011
50:42.830,1.14111328125,-0.099609375,1.89501953125,1.0528564453125,-3.326416015625,-39.9322509765625,-25.489621489621488,-22.79072039072039,47.68058608058608,-0.044921875,-1.92431640625,0.4443359375,1.86920166015625,-3.47137451171875,-2.0904541015625,55.77728937728938,-69.87155067155066,61.924786324786325,-1.298828125,1.46875,0.517578125,-0.701904296875,0.7171630859375,1.8463134765625,-53.228327228327224,72.12063492063491,-96.26080586080586
50:43.708,0.96923828125,-0.0537109375,1.90966796875,1.0528564453125,-3.326416015625,-39.9322509765625,-24.88986568986569,-23.09059829059829,48.88009768009768,-0.0498046875,-1.9248046875,0.44970703125,0.3662109375,-0.3509521484375,-3.10516357421875,54.427838827838826,-69.57167277167277,60.57533577533577,-1.29052734375,1.458984375,0.5263671875,0.4730224609375,0.45013427734375,2.32696533203125,-51.87887667887668,71.37094017094017,-97.31037851037851
50:44.585,0.62548828125,-0.20068359375,1.99853515625,5.889892578125,20.20263671875,-86.1358642578125,-24.88986568986569,-23.09059829059829,48.88009768009768,-0.0498046875,-1.9248046875,0.44970703125,-4.38690185546875,2.288818359375,-3.79180908203125,52.47863247863248,-68.97191697191697,59.975579975579976,-1.298828125,1.47021484375,0.52880859375,-0.7781982421875,0.4119873046875,1.96075439453125,-52.32869352869353,72.72039072039071,-96.7106227106227
50:45.463,0.38232421875,-0.12255859375,2.04052734375,-1.708984375,21.38519287109375,-103.15704345703125,-16.64322344322344,-24.589987789987788,48.73015873015873,-0.09033203125,-1.89599609375,0.4404296875,-4.38690185546875,2.288818359375,-3.79180908203125,55.32747252747252,-66.42295482295482,60.425396825396824,-1.298828125,1.47021484375,0.52880859375,-0.58746337890625,0.90789794921875,1.8310546875,-53.52820512820512,71.97069597069597,-96.7106227106227
50:46.341,0.09716796875,0.00146484375,2.06201171875,-3.71551513671875,21.30889892578125,-120.62835693359375,-6.447374847374848,-27.13894993894994,50.37948717948718,-0.0810546875,-1.9365234375,0.44189453125,-4.64630126953125,4.70733642578125,-3.47137451171875,55.32747252747252,-66.42295482295482,60.425396825396824,-1.30224609375,1.45068359375,0.53466796875,-0.58746337890625,0.90789794921875,1.8310546875,-53.52820512820512,71.97069597069597,-96.7106227106227
50:47.218,0.15625,-0.056640625,2.0615234375,0.22125244140625,24.71160888671875,-101.43280029296875,1.3494505494505493,-27.13894993894994,54.12796092796093,-0.09619140625,-1.94140625,0.4638671875,-1.54876708984375,4.0130615234375,-1.4190673828125,54.727716727716725,-69.12185592185592,60.125518925518925,-1.29931640625,1.46337890625,0.52197265625,-0.61798095703125,0.81634521484375,2.05230712890625,-53.078388278388275,72.27057387057387,-96.4107448107448
50:48.096,-0.0751953125,0.0966796875,2.107421875,-5.2642822265625,9.33074951171875,-94.8333740234375,1.4993894993894994,-27.738705738705736,52.928449328449325,-0.126953125,-1.908203125,0.408203125,-4.3182373046875,2.25067138671875,0.05340576171875,53.37826617826617,-69.12185592185592,61.17509157509157,-1.298828125,1.46044921875,0.5361328125,-0.7171630859375,0.640869140625,1.51824951171875,-52.17875457875458,72.12063492063491,-96.56068376068376
50:48.973,0.03662109375,-0.0537109375,2.076171875,5.523681640625,28.8848876953125,-68.19915771484375,5.097924297924298,-25.93943833943834,55.62735042735043,-0.1162109375,-1.8916015625,0.44970703125,-3.8604736328125,4.4097900390625,-1.15966796875,53.82808302808303,-70.47130647130646,59.975579975579976,-1.29833984375,1.4609375,0.53515625,-0.9613037109375,0.9918212890625,1.36566162109375,-50.07960927960928,72.12063492063491,-97.01050061050061
50:49.850,-0.08154296875,-0.06640625,2.0888671875,-1.03759765625,21.6522216796875,-77.06451416015625,8.246642246642246,-25.489621489621488,53.97802197802198,-0.09619140625,-1.9189453125,0.42529296875,-2.02178955078125,0.67138671875,-0.1373291015625,54.577777777777776,-68.22222222222221,61.47496947496947,-1.30615234375,1.45751953125,0.54931640625,-0.8544921875,0.67138671875,1.3885498046875,-52.928449328449325,68.82197802197803,-95.96092796092796
50:50.728,-0.08154296875,-0.06640625,2.0888671875,-1.03759765625,21.6522216796875,-77.06451416015625,8.546520146520146,-27.738705738705736,51.87887667887668,-0.11962890625,-1.93896484375,0.4658203125,-1.22833251953125,1.8157958984375,2.69317626953125,55.47741147741147,-68.52210012210011,60.125518925518925,-1.30517578125,1.44970703125,0.5322265625,-0.1220703125,0.66375732421875,2.35748291015625,-53.52820512820512,71.52087912087912,-97.46031746031746
50:51.605,0.24755859375,-0.08544921875,2.06396484375,1.06048583984375,11.05499267578125,-10.07080078125,8.546520146520146,-27.738705738705736,51.87887667887668,-0.0390625,-1.8857421875,0.48193359375,-4.241943359375,-0.78582763671875,2.838134765625,56.227106227106226,-69.12185592185592,60.87521367521367,-1.302734375,1.45458984375,0.53271484375,-0.69427490234375,0.4425048828125,1.86920166015625,-53.52820512820512,70.92112332112332,-97.76019536019535
50:52.483,-0.23974609375,0.20263671875,2.1572265625,2.9449462890625,-5.218505859375,49.15618896484375,12.444932844932845,-26.98901098901099,55.027594627594624,-0.0390625,-1.8857421875,0.48193359375,-4.241943359375,-0.78582763671875,2.838134765625,55.62735042735043,-68.97191697191697,63.12429792429792,-1.302734375,1.45458984375,0.53271484375,-0.96893310546875,0.84686279296875,1.73187255859375,-53.52820512820512,73.47008547008546,-96.1108669108669
50:53.361,-0.28076171875,0.0751953125,2.13671875,0.51116943359375,-0.95367431640625,75.52337646484375,13.344566544566543,-26.83907203907204,53.37826617826617,-0.07177734375,-1.9228515625,0.47314453125,-7.19451904296875,-1.77001953125,8.11004638671875,55.62735042735043,-68.97191697191697,63.12429792429792,-1.3037109375,1.4541015625,0.5458984375,-0.96893310546875,0.84686279296875,1.73187255859375,-53.078388278388275,71.22100122100122,-96.1108669108669
50:54.238,0.14013671875,-0.111328125,2.06884765625,5.16510009765625,-17.7764892578125,101.104736328125,10.645665445665445,-25.93943833943834,53.67814407814408,-0.0634765625,-1.9189453125,0.48291015625,-5.1422119140625,-2.716064453125,4.15802001953125,54.727716727716725,-68.52210012210011,61.624908424908426,-1.30712890625,1.45751953125,0.5458984375,-0.396728515625,0.58746337890625,1.97601318359375,-53.078388278388275,71.22100122100122,-96.1108669108669
50:55.115,0.10888671875,0.025390625,2.09375,1.7852783203125,-14.48822021484375,111.74774169921875,7.796825396825397,-28.338461538461537,50.829304029304026,-0.04052734375,-1.90380859375,0.48681640625,-7.171630859375,-5.645751953125,6.0882568359375,56.377045177045176,-70.47130647130646,64.17387057387057,-1.30029296875,1.45458984375,0.53466796875,-1.190185546875,0.762939453125,1.495361328125,-51.72893772893773,70.47130647130646,-96.4107448107448
50:55.993,0.27490234375,-0.10693359375,1.98583984375,5.1116943359375,-18.402099609375,102.7679443359375,5.247863247863248,-29.238095238095237,50.67936507936508,-0.0654296875,-1.91162109375,0.458984375,-3.11279296875,-0.91552734375,4.7454833984375,56.377045177045176,-68.97191697191697,64.17387057387057,-1.30712890625,1.45556640625,0.5546875,-2.86102294921875,0.38909912109375,1.31988525390625,-54.577777777777776,69.72161172161172,-97.16043956043956
50:56.870,0.287109375,-0.16357421875,2.03271484375,-1.617431640625,-13.72528076171875,106.3995361328125,3.1487179487179486,-28.93821733821734,50.37948717948718,-0.05419921875,-1.90625,0.49169921875,-5.31005859375,-2.18963623046875,4.35638427734375,56.227106227106226,-69.12185592185592,63.42417582417582,-1.31005859375,1.45751953125,0.5380859375,-1.01470947265625,0.579833984375,1.7242431640625,-53.52820512820512,70.92112332112332,-96.7106227106227
50:57.748,0.287109375,-0.16357421875,2.03271484375,-3.66973876953125,-18.1427001953125,103.240966796875,-3.4485958485958483,-26.98901098901099,49.179975579975576,-0.0234375,-1.89599609375,0.47216796875,-4.7149658203125,0.8697509765625,2.6702880859375,56.227106227106226,-69.57167277167277,64.02393162393162,-1.3017578125,1.4638671875,0.533203125,-1.678466796875,0.91552734375,1.2969970703125,-54.12796092796093,70.92112332112332,-98.809768009768
50:58.626,0.56494140625,-0.07861328125,1.998046875,-3.66973876953125,-18.1427001953125,103.240966796875,-3.4485958485958483,-26.98901098901099,49.179975579975576,-0.0478515625,-1.89599609375,0.47705078125,-5.92041015625,2.01416015625,5.10406494140625,55.62735042735043,-69.72161172161172,63.873992673992674,-1.3017578125,1.4580078125,0.5302734375,-2.6092529296875,1.1749267578125,0.91552734375,-55.62735042735043,71.22100122100122,-96.4107448107448
50:59.503,0.52294921875,-0.06103515625,1.95751953125,-20.59173583984375,-29.54864501953125,89.66827392578125,-13.494505494505495,-27.438827838827837,45.88131868131868,-0.0478515625,-1.89599609375,0.47705078125,-3.3111572265625,1.62506103515625,1.83868408203125,55.62735042735043,-69.42173382173382,63.873992673992674,-1.3017578125,1.4580078125,0.5302734375,-2.288818359375,1.129150390625,1.3885498046875,-52.17875457875458,71.37094017094017,-95.2112332112332
51:00.381,0.5537109375,-0.0166015625,1.9951171875,-12.84027099609375,-13.45062255859375,74.60784912109375,-15.743589743589743,-25.93943833943834,47.53064713064713,-0.0322265625,-1.9208984375,0.48388671875,-3.3111572265625,1.62506103515625,1.83868408203125,55.62735042735043,-69.42173382173382,63.873992673992674,-1.30126953125,1.455078125,0.54833984375,-2.288818359375,1.129150390625,1.3885498046875,-54.577777777777776,71.52087912087912,-97.46031746031746
51:01.258,0.755859375,-0.0224609375,1.90673828125,-7.30133056640625,-11.29150390625,52.9327392578125,-17.692796092796094,-25.639560439560437,50.37948717948718,-0.04443359375,-1.90966796875,0.45166015625,-6.91986083984375,2.35748291015625,1.89208984375,54.427838827838826,-69.12185592185592,62.97435897435897,-1.30224609375,1.46240234375,0.5341796875,-2.0599365234375,0.8087158203125,1.0986328125,-54.577777777777776,71.52087912087912,-97.46031746031746
51:02.135,1.21240234375,-0.02099609375,1.87744140625,7.60650634765625,-3.1890869140625,20.02716064453125,-20.99145299145299,-25.93943833943834,47.53064713064713,-0.03271484375,-1.8720703125,0.49462890625,1.59454345703125,-3.10516357421875,-1.0528564453125,55.62735042735043,-69.42173382173382,64.17387057387057,-1.30224609375,1.47412109375,0.52880859375,-1.82342529296875,0.86212158203125,1.30462646484375,-54.12796092796093,72.27057387057387,-96.4107448107448
51:03.013,0.9833984375,0.1728515625,1.8388671875,-12.847900390625,-37.994384765625,49.00360107421875,-27.738705738705736,-22.04102564102564,47.08083028083028,-0.0126953125,-1.92041015625,0.50390625,-1.46484375,1.312255859375,2.74658203125,56.07716727716728,-68.97191697191697,63.873992673992674,-1.3046875,1.470703125,0.53125,-2.47955322265625,0.95367431640625,1.01470947265625,-51.72893772893773,72.27057387057387,-97.16043956043956
51:03.939,0.982421875,-0.01416015625,1.8076171875,3.86810302734375,14.13726806640625,16.91436767578125,-28.338461538461537,-23.24053724053724,47.68058608058608,-0.015625,-1.8857421875,0.47998046875,-0.5035400390625,-2.838134765625,0.58746337890625,55.47741147741147,-70.32136752136752,63.724053724053725,-1.296875,1.4619140625,0.5244140625,-1.57928466796875,0.72479248046875,1.24359130859375,-52.628571428571426,70.32136752136752,-97.01050061050061
51:04.817,0.982421875,-0.01416015625,1.8076171875,-2.02178955078125,-8.53729248046875,109.58099365234375,-29.238095238095237,-23.39047619047619,46.48107448107448,-0.20556640625,-1.87548828125,0.42724609375,-12.420654296875,15.93780517578125,6.0882568359375,55.62735042735043,-68.22222222222221,63.12429792429792,-1.318359375,1.458984375,0.50146484375,-6.1798095703125,1.70135498046875,0.22125244140625,-51.72893772893773,72.27057387057387,-96.4107448107448
51:05.743,-0.05712890625,-0.00537109375,2.06982421875,5.28717041015625,21.9268798828125,-111.5875244140625,-2.548962148962149,-26.83907203907204,49.329914529914525,-0.072265625,-1.900390625,0.47705078125,5.7525634765625,31.27288818359375,-16.815185546875,55.62735042735043,-67.47252747252747,59.67570207570208,-1.3349609375,1.44140625,0.53857421875,1.22833251953125,0.63323974609375,-0.77056884765625,-52.32869352869353,72.27057387057387,-97.46031746031746
51:06.620,-0.04248046875,0.02734375,2.02490234375,5.28717041015625,21.9268798828125,-111.5875244140625,-2.548962148962149,-26.83907203907204,49.329914529914525,-0.10888671875,-1.8916015625,0.4765625,-1.7547607421875,1.7242431640625,-1.9683837890625,57.42661782661782,-70.17142857142856,59.37582417582417,-1.34912109375,1.42041015625,0.50830078125,-1.59454345703125,2.0294189453125,1.4495849609375,-53.078388278388275,72.72039072039071,-98.50989010989011
51:07.498,0.30615234375,-0.0556640625,2.0859375,-4.1961669921875,23.7274169921875,-103.0426025390625,-1.4993894993894994,-27.88864468864469,53.82808302808303,-0.10888671875,-1.8916015625,0.4765625,0.69427490234375,-0.1068115234375,-7.75909423828125,56.826862026862024,-69.72161172161172,58.326251526251525,-1.34912109375,1.42041015625,0.50830078125,-0.25177001953125,1.0986328125,1.7852783203125,-51.87887667887668,71.07106227106227,-98.65982905982905
51:08.424,0.47705078125,-0.10205078125,2.03857421875,7.62939453125,26.71051025390625,-103.3172607421875,-5.247863247863248,-25.93943833943834,50.22954822954823,-0.12353515625,-1.89404296875,0.50439453125,0.69427490234375,-0.1068115234375,-7.75909423828125,56.97680097680097,-68.82197802197803,61.624908424908426,-1.32763671875,1.4306640625,0.5380859375,-0.25177001953125,1.0986328125,1.7852783203125,-52.02881562881563,71.22100122100122,-98.50989010989011
51:09.448,0.7607421875,0.0224609375,1.98828125,1.678466796875,19.59228515625,-91.97235107421875,-16.043467643467643,-23.39047619047619,51.57899877899878,-0.06005859375,-1.9111328125,0.513671875,8.52203369140625,-5.07354736328125,-4.82177734375,54.727716727716725,-68.52210012210011,62.37460317460317,-1.32373046875,1.4423828125,0.54248046875,-3.143310546875,1.2969970703125,1.35040283203125,-51.87887667887668,69.57167277167277,-96.56068376068376
51:10.374,0.87646484375,-0.23828125,1.88427734375,-9.82666015625,-38.93280029296875,52.31475830078125,-18.44249084249084,-24.29010989010989,49.030036630036626,-0.150390625,-1.92333984375,0.52099609375,-4.21905517578125,1.54876708984375,1.708984375,54.727716727716725,-68.52210012210011,62.37460317460317,-1.32373046875,1.43603515625,0.50048828125,-3.143310546875,1.2969970703125,1.35040283203125,-52.17875457875458,71.37094017094017,-97.61025641025641
51:11.252,-0.03125,0.05078125,2.10888671875,9.1552734375,-13.14544677734375,105.85784912109375,-14.993894993894994,-24.44004884004884,49.479853479853475,-0.17138671875,-1.91455078125,0.47607421875,-7.6141357421875,-3.7384033203125,5.77545166015625,56.826862026862024,-68.97191697191697,62.52454212454212,-1.31787109375,1.4345703125,0.5400390625,-0.74005126953125,0.946044921875,1.6021728515625,-52.17875457875458,71.37094017094017,-97.61025641025641
51:12.178,-0.22900390625,0.0625,2.1884765625,-0.6561279296875,10.07843017578125,21.8505859375,7.047130647130647,-28.93821733821734,50.67936507936508,-0.15869140625,-1.88671875,0.51513671875,-3.68499755859375,6.24847412109375,0.66375732421875,55.32747252747252,-67.47252747252747,62.074725274725274,-1.32177734375,1.43212890625,0.52880859375,-2.3651123046875,0.4425048828125,1.39617919921875,-54.427838827838826,71.07106227106227,-97.31037851037851
51:13.055,0.0498046875,-0.0693359375,2.04296875,-5.74493408203125,18.98193359375,-96.8170166015625,7.347008547008547,-29.238095238095237,50.37948717948718,-0.197265625,-1.86474609375,0.52685546875,-14.65606689453125,-20.24078369140625,3.25775146484375,56.826862026862024,-67.47252747252747,62.074725274725274,-1.32373046875,1.44091796875,0.5439453125,-1.800537109375,0.8087158203125,2.410888671875,-52.778510378510376,71.97069597069597,-98.809768009768
51:13.982,0.83203125,-0.08837890625,1.9306640625,-6.5155029296875,22.54486083984375,-125.732421875,-1.799267399267399,-25.33968253968254,51.429059829059824,-0.07177734375,-1.8408203125,0.54931640625,6.93511962890625,3.4027099609375,-4.21142578125,56.377045177045176,-68.97191697191697,62.52454212454212,-1.30810546875,1.44873046875,0.5205078125,-2.57110595703125,0.48065185546875,1.94549560546875,-52.02881562881563,70.47130647130646,-97.46031746031746
51:15.054,0.26904296875,0.017578125,2.15283203125,-0.11444091796875,17.578125,14.27459716796875,-13.344566544566543,-24.88986568986569,49.479853479853475,-0.1162109375,-1.8740234375,0.5791015625,-0.38909912109375,10.45989990234375,-5.30242919921875,55.47741147741147,-69.12185592185592,61.924786324786325,-1.32421875,1.43603515625,0.4912109375,-2.4871826171875,0.4119873046875,2.29644775390625,-50.979242979242976,73.02026862026862,-98.50989010989011
51:15.981,0.11767578125,-0.015625,2.2041015625,-10.64300537109375,7.33184814453125,7.568359375,-31.487179487179485,-14.244200244200243,48.73015873015873,-0.052734375,-1.9140625,0.5263671875,-2.38800048828125,-9.10186767578125,3.89862060546875,56.826862026862024,-70.17142857142856,63.873992673992674,-1.30908203125,1.43701171875,0.537109375,-3.82232666015625,1.12152099609375,1.93023681640625,-51.87887667887668,73.62002442002442,-99.4095238095238
51:17.004,0.7001953125,-0.04931640625,1.97998046875,-1.9989013671875,18.37158203125,-78.338623046875,-31.936996336996337,-18.44249084249084,48.13040293040293,-0.060546875,-1.88623046875,0.51513671875,7.110595703125,-3.448486328125,-3.3721923828125,55.47741147741147,-68.52210012210011,64.77362637362637,-1.2900390625,1.45068359375,0.552734375,3.66973876953125,1.556396484375,0.86212158203125,-52.628571428571426,71.37094017094017,-97.31037851037851
51:18.028,0.54541015625,0.00537109375,1.9765625,-0.02288818359375,19.95086669921875,-88.8519287109375,-17.39291819291819,-22.19096459096459,51.129181929181925,-0.11083984375,-1.9384765625,0.529296875,13.4735107421875,5.05828857421875,-7.1563720703125,55.32747252747252,-68.67203907203907,61.774847374847376,-1.3271484375,1.45556640625,0.52392578125,-0.0762939453125,1.03759765625,1.56402587890625,-52.02881562881563,72.27057387057387,-96.1108669108669
51:18.905,0.88330078125,0.14599609375,2.1220703125,-0.6561279296875,6.03485107421875,-77.4078369140625,-15.893528693528692,-23.54041514041514,48.73015873015873,-0.07763671875,-1.88818359375,0.51611328125,7.17926025390625,-15.72418212890625,0.030517578125,55.77728937728938,-69.57167277167277,61.924786324786325,-1.32958984375,1.43310546875,0.5322265625,-1.3885498046875,0.90789794921875,2.89154052734375,-51.129181929181925,73.17020757020757,-98.35995115995115
51:19.832,0.88330078125,0.14599609375,2.1220703125,-11.0931396484375,-2.73895263671875,-43.75457763671875,-30.587545787545785,-12.744810744810744,46.78095238095238,-0.1533203125,-1.9833984375,0.48291015625,7.8582763671875,-38.36822509765625,17.05169677734375,57.12673992673992,-69.72161172161172,63.57411477411477,-1.33349609375,1.4228515625,0.55419921875,-1.15203857421875,1.2359619140625,2.15911865234375,-52.17875457875458,72.87032967032967,-97.31037851037851
51:20.758,0.94482421875,-0.07568359375,1.90380859375,-8.33892822265625,-33.660888671875,103.515625,-23.690354090354088,-20.39169719169719,49.030036630036626,-0.09423828125,-1.8779296875,0.5791015625,-1.0986328125,-3.92913818359375,1.1749267578125,56.97680097680097,-71.37094017094017,61.17509157509157,-1.3017578125,1.45068359375,0.51416015625,-2.349853515625,1.65557861328125,1.96075439453125,-54.12796092796093,70.47130647130646,-98.21001221001221
51:21.733,0.61962890625,-0.1865234375,1.98681640625,-8.33892822265625,-33.660888671875,103.515625,-10.495726495726496,-24.88986568986569,50.52942612942613,-0.14599609375,-1.86669921875,0.52490234375,-10.3912353515625,3.44085693359375,-0.38909912109375,55.77728937728938,-68.82197802197803,64.47374847374847,-1.3212890625,1.43408203125,0.52734375,-2.70843505859375,1.42669677734375,1.1138916015625,-53.078388278388275,70.17142857142856,-97.76019536019535
51:22.611,0.43212890625,-0.09130859375,2.1083984375,-4.7454833984375,-25.00152587890625,103.61480712890625,-10.495726495726496,-24.88986568986569,50.52942612942613,-0.15771484375,-1.9150390625,0.45703125,-9.07135009765625,6.18743896484375,0.762939453125,55.77728937728938,-69.12185592185592,59.825641025641026,-1.32080078125,1.4560546875,0.52099609375,-3.570556640625,0.8697509765625,1.30462646484375,-52.928449328449325,71.82075702075701,-99.4095238095238
51:23.537,0.35400390625,-0.09033203125,1.96875,7.6751708984375,-32.31048583984375,119.1558837890625,-0.29987789987789987,-25.93943833943834,51.87887667887668,-0.15771484375,-1.9150390625,0.45703125,-3.6163330078125,-2.28118896484375,0.58746337890625,55.17753357753357,-68.52210012210011,61.17509157509157,-1.31005859375,1.45751953125,0.521484375,-2.8533935546875,0.4119873046875,1.678466796875,-52.32869352869353,71.97069597069597,-96.7106227106227
51:24.463,0.416015625,-0.2177734375,2.005859375,1.53350830078125,-22.2015380859375,78.2623291015625,6.297435897435897,-28.488400488400487,50.07960927960928,-0.1533203125,-1.89111328125,0.5302734375,-3.6163330078125,-2.28118896484375,0.58746337890625,55.77728937728938,-68.52210012210011,61.924786324786325,-1.31005859375,1.45751953125,0.521484375,-3.0517578125,1.19781494140625,1.56402587890625,-53.228327228327224,71.07106227106227,-98.06007326007325
51:25.340,-0.416015625,0.1259765625,2.244140625,3.3416748046875,3.4027099609375,48.27880859375,-5.697680097680098,-27.13894993894994,50.37948717948718,-0.13232421875,-1.95654296875,0.5244140625,-3.448486328125,1.88446044921875,-0.80108642578125,55.77728937728938,-68.52210012210011,61.924786324786325,-1.32958984375,1.412109375,0.5380859375,-3.0517578125,1.19781494140625,1.56402587890625,-53.228327228327224,71.07106227106227,-98.06007326007325
51:26.218,-0.13427734375,0.20703125,1.98388671875,-3.23486328125,-8.6517333984375,-23.101806640625,10.345787545787545,-26.539194139194137,52.17875457875458,-0.1357421875,-1.8701171875,0.50732421875,-1.89208984375,19.378662109375,-2.83050537109375,56.826862026862024,-68.22222222222221,62.074725274725274,-1.32470703125,1.4345703125,0.513671875,0.030517578125,1.07574462890625,2.08282470703125,-52.17875457875458,70.62124542124542,-99.1096459096459
51:27.096,0.03125,0.12890625,2.09375,-0.3814697265625,8.8653564453125,-106.7047119140625,9.746031746031745,-25.33968253968254,53.37826617826617,-0.20458984375,-1.94873046875,0.4501953125,-5.60760498046875,-21.484375,-3.2958984375,55.17753357753357,-67.32258852258852,59.07594627594627,-1.3291015625,1.44921875,0.515625,-2.3956298828125,-0.45013427734375,2.3956298828125,-53.078388278388275,71.22100122100122,-98.50989010989011
51:27.973,1.185546875,-0.25634765625,1.8251953125,-9.58251953125,0.457763671875,-13.6566162109375,-14.244200244200243,-23.54041514041514,54.877655677655675,-0.041015625,-1.85498046875,0.56396484375,13.31329345703125,-8.1939697265625,-2.7313232421875,55.77728937728938,-68.07228327228327,58.476190476190474,-1.31884765625,1.4462890625,0.5029296875,0.74005126953125,1.6937255859375,2.37274169921875,-53.078388278388275,70.17142857142856,-97.76019536019535
51:28.851,0.36962890625,-0.2451171875,2.00537109375,6.0577392578125,-26.19171142578125,101.70745849609375,-14.694017094017093,-23.690354090354088,50.829304029304026,-0.181640625,-1.8486328125,0.57421875,-10.47515869140625,-0.23651123046875,1.89971923828125,56.526984126984125,-69.87155067155066,64.77362637362637,-1.31640625,1.46435546875,0.51806640625,-0.67901611328125,0.1678466796875,2.0904541015625,-52.778510378510376,71.52087912087912,-96.4107448107448
51:29.728,0.36962890625,-0.2451171875,2.00537109375,6.0577392578125,-26.19171142578125,101.70745849609375,3.1487179487179486,-28.488400488400487,50.67936507936508,-0.169921875,-1.8828125,0.5498046875,-9.22393798828125,-7.37762451171875,6.7138671875,56.227106227106226,-69.12185592185592,64.02393162393162,-1.31591796875,1.44921875,0.52294921875,-1.86920166015625,0.8697509765625,1.251220703125,-51.279120879120875,70.47130647130646,-97.46031746031746
51:30.656,0.2314453125,-0.20166015625,2.00146484375,1.6937255859375,-14.8162841796875,115.447998046875,2.548962148962149,-28.03858363858364,53.228327228327224,-0.14990234375,-1.875,0.5498046875,-6.927490234375,-2.532958984375,5.096435546875,56.377045177045176,-69.42173382173382,62.52454212454212,-1.3115234375,1.44091796875,0.529296875,-1.129150390625,0.98419189453125,1.7852783203125,-52.628571428571426,71.37094017094017,-98.06007326007325
51:31.532,-0.18115234375,0.0771484375,2.19482421875,12.01629638671875,-15.58685302734375,90.66009521484375,2.548962148962149,-28.03858363858364,53.228327228327224,-0.14990234375,-1.875,0.5498046875,-3.5552978515625,12.2528076171875,-2.4871826171875,56.07716727716728,-67.92234432234432,63.873992673992674,-1.3115234375,1.44091796875,0.529296875,-0.48065185546875,2.05230712890625,0.60272216796875,-51.279120879120875,70.47130647130646,-97.16043956043956
51:32.409,-0.044921875,0.03564453125,2.06689453125,1.3580322265625,5.06591796875,-21.66748046875,13.344566544566543,-27.88864468864469,52.02881562881563,-0.16357421875,-1.86962890625,0.52587890625,-3.5552978515625,12.2528076171875,-2.4871826171875,53.97802197802198,-68.52210012210011,61.924786324786325,-1.3291015625,1.46435546875,0.48681640625,-0.48065185546875,2.05230712890625,0.60272216796875,-51.279120879120875,71.97069597069597,-96.7106227106227
51:33.287,0.55810546875,-0.02197265625,2.044921875,6.2713623046875,22.0184326171875,-112.28179931640625,3.2986568986568985,-27.288888888888888,50.829304029304026,-0.0869140625,-1.90869140625,0.55126953125,1.312255859375,10.7879638671875,-7.2021484375,53.97802197802198,-68.52210012210011,61.924786324786325,-1.31591796875,1.45361328125,0.5068359375,2.60162353515625,0.98419189453125,1.27410888671875,-50.37948717948718,70.62124542124542,-96.56068376068376
51:34.262,0.265625,-0.322265625,1.86376953125,2.9296875,10.5743408203125,-125.48828125,-19.791941391941393,-22.49084249084249,51.72893772893773,-0.06201171875,-1.859375,0.478515625,8.4075927734375,1.8310546875,-11.260986328125,56.526984126984125,-68.52210012210011,62.37460317460317,-1.314453125,1.4619140625,0.48095703125,-4.150390625,-0.8087158203125,0.48065185546875,-50.37948717948718,70.62124542124542,-96.56068376068376
51:35.139,0.9384765625,-0.18359375,1.93017578125,-1.73187255859375,2.410888671875,-40.313720703125,-18.29255189255189,-23.09059829059829,49.479853479853475,-0.001953125,-1.87890625,0.5400390625,4.1351318359375,-5.9967041015625,2.2735595703125,55.32747252747252,-68.67203907203907,64.62368742368741,-1.306640625,1.4541015625,0.52001953125,2.471923828125,0.5340576171875,2.8839111328125,-49.92967032967033,72.72039072039071,-97.76019536019535
51:36.017,0.9208984375,-0.1787109375,1.8017578125,-0.946044921875,-29.64019775390625,101.00555419921875,-19.64200244200244,-23.09059829059829,49.179975579975576,-0.216796875,-1.75,0.55908203125,-12.59613037109375,-23.62823486328125,10.04791259765625,54.727716727716725,-69.87155067155066,63.724053724053725,-1.31884765625,1.44384765625,0.50341796875,-1.5716552734375,-0.091552734375,2.00653076171875,-51.429059829059824,72.57045177045177,-97.01050061050061
51:36.894,-0.69482421875,0.46826171875,2.32421875,6.2408447265625,-1.64794921875,65.71197509765625,-13.794383394383393,-27.88864468864469,45.88131868131868,-0.11181640625,-1.86376953125,0.5263671875,-1.8463134765625,3.23486328125,2.8839111328125,57.87643467643468,-70.47130647130646,59.67570207570208,-1.31396484375,1.45458984375,0.51513671875,1.13677978515625,1.0223388671875,1.02996826171875,-52.02881562881563,72.27057387057387,-97.46031746031746
51:37.774,-0.69482421875,0.46826171875,2.32421875,8.17108154296875,6.47735595703125,-19.98138427734375,18.44249084249084,-25.93943833943834,55.027594627594624,-0.12451171875,-1.873046875,0.49462890625,-4.5166015625,5.7830810546875,1.922607421875,54.577777777777776,-67.92234432234432,64.92356532356533,-1.31787109375,1.4521484375,0.52880859375,-0.16021728515625,0.55694580078125,2.3956298828125,-50.52942612942613,70.47130647130646,-97.76019536019535
51:38.698,0.23095703125,0.14990234375,2.02197265625,8.17108154296875,6.47735595703125,-19.98138427734375,16.343345543345542,-25.18974358974359,54.27789987789988,-0.15576171875,-1.88671875,0.50341796875,-4.7454833984375,8.30841064453125,1.12152099609375,54.877655677655675,-67.47252747252747,64.62368742368741,-1.31787109375,1.46044921875,0.51171875,-0.8392333984375,0.8392333984375,1.3885498046875,-52.32869352869353,72.27057387057387,-97.16043956043956
51:39.576,-0.09716796875,0.154296875,2.26611328125,5.1116943359375,36.376953125,-32.11212158203125,16.343345543345542,-25.18974358974359,54.27789987789988,-0.15576171875,-1.88671875,0.50341796875,-5.157470703125,8.07952880859375,1.04522705078125,54.577777777777776,-68.67203907203907,64.17387057387057,-1.3056640625,1.4560546875,0.52099609375,-0.17547607421875,0.6256103515625,2.197265625,-52.17875457875458,72.57045177045177,-97.61025641025641
51:40.453,0.27783203125,0.19775390625,2.12744140625,3.53240966796875,3.1585693359375,-22.40753173828125,19.49206349206349,-26.23931623931624,55.62735042735043,-0.12841796875,-1.90869140625,0.49072265625,-5.157470703125,8.07952880859375,1.04522705078125,54.877655677655675,-66.12307692307692,63.873992673992674,-1.3056640625,1.4560546875,0.52099609375,-0.63323974609375,0.3814697265625,1.7242431640625,-54.727716727716725,71.82075702075701,-97.61025641025641
51:41.331,-0.42822265625,0.671875,2.44921875,6.7901611328125,19.95849609375,13.3514404296875,20.39169719169719,-25.639560439560437,54.877655677655675,-0.12939453125,-1.88232421875,0.53515625,-4.119873046875,2.73895263671875,3.0975341796875,54.877655677655675,-66.12307692307692,63.873992673992674,-1.3134765625,1.44287109375,0.5302734375,-0.63323974609375,0.3814697265625,1.7242431640625,-54.727716727716725,71.82075702075701,-97.61025641025641
51:42.208,-0.04296875,0.404296875,2.02490234375,7.5531005859375,17.66204833984375,-32.71484375,21.14139194139194,-24.29010989010989,54.427838827838826,-0.2333984375,-1.88330078125,0.50732421875,-3.60107421875,10.70404052734375,1.3427734375,54.577777777777776,-68.22222222222221,65.22344322344323,-1.314453125,1.43994140625,0.52783203125,-3.2196044921875,1.129150390625,0.7781982421875,-53.228327228327224,71.07106227106227,-97.01050061050061
51:43.183,-0.04345703125,0.05029296875,2.11181640625,5.3863525390625,21.78955078125,-39.85595703125,15.743589743589743,-26.83907203907204,55.47741147741147,-0.2001953125,-1.88623046875,0.482421875,-4.73785400390625,9.9029541015625,-1.1444091796875,56.227106227106226,-68.52210012210011,61.624908424908426,-1.3173828125,1.4638671875,0.51416015625,0.579833984375,1.1749267578125,0.701904296875,-52.17875457875458,71.07106227106227,-97.31037851037851
51:44.061,-0.5458984375,0.13232421875,2.11865234375,-6.561279296875,21.69036865234375,-77.362060546875,10.795604395604395,-26.83907203907204,55.17753357753357,-0.21875,-1.89990234375,0.482421875,-2.43377685546875,-17.242431640625,11.66534423828125,53.37826617826617,-68.07228327228327,60.125518925518925,-1.32470703125,1.43408203125,0.5419921875,-4.24957275390625,0.2288818359375,1.02996826171875,-53.52820512820512,73.02026862026862,-98.50989010989011
51:44.989,0.5615234375,0.0224609375,2.02392578125,-2.86102294921875,22.247314453125,-113.83819580078125,7.347008547008547,-26.83907203907204,54.427838827838826,-0.16552734375,-1.91259765625,0.5498046875,8.48388671875,-1.79290771484375,-5.25665283203125,55.17753357753357,-68.07228327228327,60.125518925518925,-1.322265625,1.44482421875,0.51708984375,0.74005126953125,1.3275146484375,1.57928466796875,-52.778510378510376,73.76996336996336,-97.76019536019535
51:45.864,1.00732421875,0.05810546875,1.92724609375,-1.47247314453125,7.98797607421875,-60.17303466796875,-11.695238095238095,-27.438827838827837,53.37826617826617,-0.064453125,-1.876953125,0.52734375,8.58306884765625,2.38800048828125,-4.63104248046875,56.826862026862024,-66.42295482295482,59.37582417582417,-1.3203125,1.46337890625,0.51513671875,-0.8544921875,1.2969970703125,1.38092041015625,-49.92967032967033,71.97069597069597,-96.7106227106227
51:46.791,1.00732421875,0.05810546875,1.92724609375,-14.59503173828125,-41.92352294921875,38.47503662109375,-31.637118437118435,-13.494505494505495,48.13040293040293,-0.1337890625,-1.892578125,0.45166015625,-3.30352783203125,-2.78472900390625,4.8675537109375,56.377045177045176,-68.67203907203907,62.82442002442002,-1.32275390625,1.4453125,0.50146484375,0.00762939453125,0.23651123046875,2.22015380859375,-50.829304029304026,70.32136752136752,-98.35995115995115
51:47.668,0.7802734375,-0.0986328125,1.9013671875,-14.59503173828125,-41.92352294921875,38.47503662109375,-23.54041514041514,-22.04102564102564,47.53064713064713,-0.1396484375,-1.8740234375,0.52197265625,-6.72149658203125,0.091552734375,2.6092529296875,56.526984126984125,-68.82197802197803,56.676923076923075,-1.32568359375,1.447265625,0.494140625,-1.33514404296875,0.946044921875,1.41143798828125,-49.92967032967033,70.92112332112332,-97.16043956043956
51:48.546,0.29541015625,-0.12890625,2.04345703125,-8.3465576171875,-38.6199951171875,131.7138671875,-23.54041514041514,-22.04102564102564,47.53064713064713,-0.1396484375,-1.8740234375,0.52197265625,-2.87628173828125,10.33782958984375,-2.6092529296875,58.176312576312576,-70.47130647130646,59.975579975579976,-1.3310546875,1.45751953125,0.49755859375,-2.11334228515625,0.9002685546875,0.946044921875,-52.02881562881563,71.52087912087912,-97.46031746031746
51:49.472,-0.47607421875,0.1484375,2.20703125,6.64520263671875,17.18902587890625,46.93603515625,-8.546520146520146,-26.389255189255188,49.62979242979243,-0.2021484375,-1.9189453125,0.498046875,-2.87628173828125,10.33782958984375,-2.6092529296875,56.377045177045176,-68.22222222222221,61.47496947496947,-1.3310546875,1.45751953125,0.49755859375,-2.96783447265625,0.4425048828125,2.3040771484375,-52.32869352869353,73.02026862026862,-96.4107448107448
51:50.544,-0.22265625,-0.001953125,2.11572265625,-3.2196044921875,16.571044921875,-65.8111572265625,5.847619047619047,-27.13894993894994,53.37826617826617,-0.15380859375,-1.892578125,0.5205078125,6.9732666015625,-16.082763671875,-1.27410888671875,56.07716727716728,-69.72161172161172,60.72527472527472,-1.32666015625,1.4443359375,0.4921875,-1.51824951171875,0.2899169921875,1.7547607421875,-52.628571428571426,70.02148962148962,-98.65982905982905
51:51.519,0.6484375,-0.0390625,1.98974609375,-0.0762939453125,16.7694091796875,-87.07427978515625,2.0991452991452992,-25.639560439560437,54.12796092796093,-0.20458984375,-1.83642578125,0.45751953125,5.615234375,-5.0201416015625,-7.01904296875,56.97680097680097,-71.07106227106227,56.676923076923075,-1.32666015625,1.4443359375,0.4921875,0.640869140625,0.823974609375,2.4566650390625,-49.92967032967033,70.47130647130646,-95.06129426129426
51:52.782,1.0849609375,0.10791015625,1.94189453125,-19.34814453125,-31.10504150390625,75.72174072265625,-29.987789987789988,-17.842735042735043,47.68058608058608,-0.18115234375,-1.8837890625,0.57470703125,-12.73345947265625,-3.28826904296875,7.3394775390625,55.17753357753357,-68.82197802197803,64.02393162393162,-1.31591796875,1.4404296875,0.51318359375,-0.732421875,1.38092041015625,1.51824951171875,-51.429059829059824,69.57167277167277,-96.26080586080586
51:53.860,0.43896484375,-0.21923828125,2.03271484375,5.55419921875,-22.20916748046875,117.431640625,-13.344566544566543,-21.59120879120879,50.829304029304026,-0.19677734375,-1.91845703125,0.498046875,-1.16729736328125,4.5013427734375,1.83868408203125,55.17753357753357,-68.82197802197803,60.125518925518925,-1.3154296875,1.46484375,0.48828125,-1.47247314453125,1.93023681640625,0.9002685546875,-51.72893772893773,72.27057387057387,-97.46031746031746
51:54.786,0.43896484375,-0.21923828125,2.03271484375,2.26593017578125,-29.144287109375,111.5264892578125,-13.194627594627594,-24.589987789987788,51.129181929181925,-0.14697265625,-1.89892578125,0.5087890625,-13.28277587890625,-3.204345703125,6.8817138671875,57.27667887667887,-67.77240537240537,62.97435897435897,-1.32080078125,1.4267578125,0.52294921875,-2.5177001953125,0.8087158203125,1.51824951171875,-52.17875457875458,72.57045177045177,-97.31037851037851
51:55.712,0.138671875,-0.18505859375,2.087890625,2.26593017578125,-29.144287109375,111.5264892578125,1.1995115995115995,-28.03858363858364,52.17875457875458,-0.16552734375,-1.908203125,0.51611328125,-0.0762939453125,7.537841796875,0.0762939453125,55.77728937728938,-68.52210012210011,62.37460317460317,-1.3310546875,1.4248046875,0.54638671875,-1.3427734375,0.91552734375,1.18255615234375,-52.778510378510376,73.02026862026862,-99.55946275946276
51:56.736,-0.81640625,0.30908203125,2.2626953125,0.91552734375,14.70184326171875,9.23919677734375,8.246642246642246,-26.539194139194137,53.67814407814408,-0.1640625,-1.85546875,0.5498046875,-7.28607177734375,3.15093994140625,2.349853515625,54.427838827838826,-68.52210012210011,62.97435897435897,-1.322265625,1.45166015625,0.51513671875,0.885009765625,0.9918212890625,2.2430419921875,-52.17875457875458,70.32136752136752,-98.35995115995115
51:57.662,-0.001953125,0.0830078125,2.0078125,-0.274658203125,8.6669921875,-26.4739990234375,8.546520146520146,-27.738705738705736,55.027594627594624,-0.18310546875,-1.9296875,0.55029296875,-6.24847412109375,9.1705322265625,0.09918212890625,55.77728937728938,-66.57289377289376,62.97435897435897,-1.3095703125,1.45068359375,0.50439453125,-1.89208984375,0.41961669921875,1.79290771484375,-51.279120879120875,71.97069597069597,-98.21001221001221
51:58.539,-0.26611328125,0.10498046875,2.193359375,-0.5035400390625,14.6484375,18.524169921875,8.546520146520146,-27.738705738705736,55.027594627594624,-0.18310546875,-1.9296875,0.55029296875,-11.75689697265625,-18.9208984375,4.0130615234375,54.727716727716725,-69.12185592185592,61.17509157509157,-1.33935546875,1.42724609375,0.50634765625,0.1983642578125,-0.06103515625,2.838134765625,-52.928449328449325,70.32136752136752,-95.96092796092796
51:59.563,-0.814453125,0.11376953125,2.23583984375,-11.71875,-7.8125,-16.0980224609375,13.194627594627594,-26.539194139194137,54.27789987789988,-0.248046875,-1.9296875,0.47998046875,-7.97271728515625,1.1749267578125,-3.47900390625,55.77728937728938,-70.32136752136752,58.026373626373626,-1.30712890625,1.46875,0.515625,-1.09100341796875,0.96893310546875,1.24359130859375,-51.429059829059824,70.32136752136752,-98.35995115995115
52:00.442,0.0322265625,0.07080078125,2.11376953125,-4.84466552734375,17.1661376953125,-127.43377685546875,-0.7496947496947497,-27.13894993894994,54.12796092796093,-0.05810546875,-1.90625,0.52001953125,-7.97271728515625,1.1749267578125,-3.47900390625,54.27789987789988,-68.22222222222221,64.62368742368741,-1.30712890625,1.46875,0.515625,-1.09100341796875,0.96893310546875,1.24359130859375,-52.628571428571426,71.82075702075701,-96.26080586080586
52:01.367,-0.537109375,0.056640625,2.07763671875,-20.538330078125,12.03155517578125,-84.02252197265625,0.7496947496947497,-26.539194139194137,53.228327228327224,-0.14453125,-1.9375,0.56201171875,-3.875732421875,3.2501220703125,4.9591064453125,54.27789987789988,-68.22222222222221,64.62368742368741,-1.3095703125,1.4521484375,0.509765625,-0.9002685546875,1.03759765625,1.251220703125,-52.17875457875458,70.32136752136752,-94.91135531135531
52:02.391,-0.392578125,0.501953125,2.29296875,-0.92315673828125,23.29254150390625,2.4566650390625,16.793162393162394,-25.03980463980464,53.37826617826617,-0.08544921875,-1.90185546875,0.55908203125,-4.486083984375,11.199951171875,8.36944580078125,57.12673992673992,-68.67203907203907,65.22344322344323,-1.2998046875,1.4658203125,0.5517578125,0.1220703125,-3.23486328125,2.09808349609375,-50.829304029304026,71.07106227106227,-95.5111111111111
52:03.707,-0.404296875,0.41650390625,2.201171875,7.2021484375,7.71331787109375,50.811767578125,21.59120879120879,-24.44004884004884,55.32747252747252,-0.11083984375,-1.91064453125,0.462890625,-8.5601806640625,4.11224365234375,1.373291015625,53.82808302808303,-70.17142857142856,64.62368742368741,-1.2998046875,1.46337890625,0.53564453125,-2.15911865234375,2.60162353515625,-1.007080078125,-52.928449328449325,70.32136752136752,-94.46153846153845
52:04.633,-0.30078125,0.39306640625,2.2275390625,10.00213623046875,1.617431640625,66.59698486328125,21.59120879120879,-24.44004884004884,55.32747252747252,0.0361328125,-1.89013671875,0.4228515625,-1.68609619140625,3.60107421875,2.3956298828125,56.377045177045176,-67.47252747252747,61.02515262515262,-1.30029296875,1.4599609375,0.5205078125,-2.35748291015625,0.90789794921875,1.2359619140625,-49.329914529914525,71.37094017094017,-96.26080586080586
52:05.608,-0.3984375,0.41455078125,2.1845703125,1.678466796875,2.99835205078125,29.876708984375,17.54285714285714,-27.438827838827837,57.12673992673992,0.02734375,-1.8935546875,0.4130859375,-2.58636474609375,1.56402587890625,8.0108642578125,57.87643467643468,-69.72161172161172,59.67570207570208,-1.294921875,1.4736328125,0.51904296875,-2.777099609375,0.67901611328125,1.39617919921875,-52.778510378510376,70.92112332112332,-97.46031746031746
52:06.535,-0.67822265625,0.5625,2.3251953125,-4.41741943359375,-10.97869873046875,35.4766845703125,15.593650793650793,-25.93943833943834,52.928449328449325,0.02734375,-1.8935546875,0.4130859375,-3.7689208984375,2.0904541015625,3.7078857421875,56.227106227106226,-70.62124542124542,61.924786324786325,-1.294921875,1.4736328125,0.51904296875,-0.60272216796875,0.61798095703125,1.7242431640625,-51.72893772893773,71.52087912087912,-96.7106227106227
52:07.461,-0.52734375,0.4873046875,2.3447265625,2.41851806640625,5.34820556640625,28.80096435546875,20.39169719169719,-25.33968253968254,55.77728937728938,0.03271484375,-1.88818359375,0.4443359375,-3.7689208984375,2.0904541015625,3.7078857421875,58.176312576312576,-70.17142857142856,59.67570207570208,-1.2978515625,1.46240234375,0.5400390625,-1.36566162109375,0.74005126953125,1.85394287109375,-51.279120879120875,71.22100122100122,-95.66105006105006
52:08.340,-0.28564453125,0.2724609375,2.28125,-0.9765625,-2.5787353515625,50.048828125,18.892307692307693,-25.639560439560437,54.427838827838826,0.00927734375,-1.8955078125,0.4287109375,-2.13623046875,-1.65557861328125,3.1585693359375,58.176312576312576,-70.17142857142856,59.67570207570208,-1.3017578125,1.45654296875,0.5224609375,-1.36566162109375,0.74005126953125,1.85394287109375,-51.279120879120875,71.22100122100122,-95.66105006105006
52:09.216,-0.54736328125,0.30810546875,2.19873046875,2.25830078125,-2.79998779296875,64.21661376953125,13.494505494505495,-25.93943833943834,52.928449328449325,0.01904296875,-1.89892578125,0.455078125,-3.3721923828125,-0.7781982421875,5.340576171875,57.42661782661782,-70.17142857142856,61.47496947496947,-1.2900390625,1.47216796875,0.5390625,-1.56402587890625,1.03759765625,1.45721435546875,-52.02881562881563,72.72039072039071,-96.4107448107448
52:10.142,-0.5107421875,0.44091796875,2.19921875,5.462646484375,2.05230712890625,57.28912353515625,16.793162393162394,-26.83907203907204,55.17753357753357,0.04541015625,-1.88232421875,0.46484375,-3.22723388671875,1.129150390625,3.8909912109375,55.32747252747252,-69.42173382173382,61.47496947496947,-1.30078125,1.4716796875,0.53125,-0.4730224609375,0.518798828125,1.800537109375,-52.928449328449325,72.57045177045177,-95.5111111111111
52:11.068,-0.19189453125,0.2744140625,2.14306640625,8.3465576171875,-12.51983642578125,96.405029296875,17.842735042735043,-26.08937728937729,56.227106227106226,-0.0009765625,-1.921875,0.4755859375,-2.31170654296875,-7.598876953125,4.21142578125,56.526984126984125,-70.62124542124542,62.67448107448107,-1.30810546875,1.458984375,0.50830078125,-1.7242431640625,0.5035400390625,1.4495849609375,-51.429059829059824,73.17020757020757,-94.46153846153845
52:11.946,0.251953125,-0.1044921875,1.99951171875,2.38800048828125,-29.815673828125,144.20318603515625,14.843956043956043,-25.18974358974359,53.67814407814408,0.02490234375,-1.93994140625,0.47119140625,-3.9825439453125,-8.04901123046875,2.7618408203125,57.12673992673992,-70.17142857142856,63.57411477411477,-1.2998046875,1.4619140625,0.5263671875,-1.739501953125,1.18255615234375,1.39617919921875,-52.02881562881563,72.27057387057387,-96.4107448107448
52:12.921,0.30029296875,-0.21240234375,1.705078125,-11.48223876953125,-28.96881103515625,139.46533203125,3.598534798534798,-27.288888888888888,50.22954822954823,0.01220703125,-1.921875,0.4609375,-5.7220458984375,0.213623046875,7.3089599609375,56.377045177045176,-71.22100122100122,64.92356532356533,-1.318359375,1.4609375,0.53173828125,-1.30462646484375,1.89971923828125,1.312255859375,-52.628571428571426,70.62124542124542,-95.5111111111111
52:13.993,-0.54638671875,0.0947265625,2.125,6.90460205078125,7.99560546875,79.3609619140625,-2.998778998778999,-26.23931623931624,49.179975579975576,-0.2822265625,-1.94091796875,0.4111328125,-5.6304931640625,0.6256103515625,5.4779052734375,56.227106227106226,-71.07106227106227,61.924786324786325,-1.31396484375,1.4638671875,0.53759765625,-0.23651123046875,0.23651123046875,3.11279296875,-52.778510378510376,70.17142857142856,-95.66105006105006
52:15.212,-0.029296875,0.1025390625,2.1044921875,-6.20269775390625,-26.153564453125,89.6759033203125,13.794383394383393,-26.98901098901099,55.027594627594624,-0.12255859375,-1.9853515625,0.52880859375,-6.70623779296875,-5.8746337890625,8.33892822265625,56.526984126984125,-68.52210012210011,54.27789987789988,-1.3056640625,1.44775390625,0.52392578125,2.75421142578125,1.18255615234375,3.02886962890625,-50.22954822954823,71.22100122100122,-97.46031746031746
52:16.285,-0.3037109375,0.3671875,2.21875,3.94439697265625,14.22119140625,51.97906494140625,7.496947496947497,-26.539194139194137,53.67814407814408,-0.09765625,-1.9033203125,0.49755859375,-4.364013671875,11.55853271484375,1.24359130859375,55.77728937728938,-69.57167277167277,60.87521367521367,-1.318359375,1.443359375,0.51708984375,6.35528564453125,-0.22125244140625,0.732421875,-50.22954822954823,71.22100122100122,-97.46031746031746
52:17.212,-0.2109375,0.103515625,2.14453125,-5.37109375,16.13616943359375,-54.45098876953125,9.296214896214895,-28.338461538461537,54.27789987789988,-0.1484375,-1.93505859375,0.494140625,-3.74603271484375,14.5111083984375,-2.7313232421875,55.17753357753357,-67.32258852258852,60.87521367521367,-1.31005859375,1.46826171875,0.4638671875,4.3792724609375,0.7171630859375,0.93841552734375,-50.37948717948718,73.17020757020757,-97.01050061050061
52:18.088,0.337890625,-0.07470703125,2.01220703125,-2.86102294921875,23.25439453125,-97.7325439453125,13.044688644688645,-26.389255189255188,54.12796092796093,-0.09423828125,-1.89794921875,0.48828125,-4.2877197265625,4.15802001953125,-2.12860107421875,54.577777777777776,-66.42295482295482,62.074725274725274,-1.32177734375,1.44873046875,0.49658203125,-1.007080078125,0.96893310546875,0.80108642578125,-49.92967032967033,72.72039072039071,-95.06129426129426
52:19.015,0.31494140625,0.00830078125,2.04052734375,-5.2490234375,19.134521484375,-138.641357421875,-9.746031746031745,-26.23931623931624,51.279120879120875,-0.2041015625,-1.86474609375,0.4794921875,-1.129150390625,-6.52313232421875,-1.27410888671875,54.27789987789988,-68.22222222222221,60.425396825396824,-1.3125,1.4521484375,0.541015625,-2.288818359375,1.1444091796875,2.2430419921875,-50.829304029304026,73.17020757020757,-95.5111111111111
52:19.892,0.81201171875,-0.06396484375,1.8935546875,-6.14166259765625,7.69805908203125,-25.82550048828125,-8.846398046398047,-25.639560439560437,50.07960927960928,-0.16015625,-1.9111328125,0.50634765625,3.79180908203125,-16.0369873046875,4.6234130859375,53.97802197802198,-69.12185592185592,60.57533577533577,-1.30712890625,1.4580078125,0.5556640625,-1.04522705078125,0.98419189453125,1.617431640625,-51.87887667887668,69.27179487179487,-97.01050061050061
52:20.965,1.02099609375,0.1435546875,1.8310546875,0.32806396484375,-25.44403076171875,57.38067626953125,-21.29133089133089,-24.29010989010989,50.67936507936508,-0.142578125,-1.84521484375,0.5771484375,-1.76239013671875,20.53070068359375,-9.62066650390625,55.17753357753357,-68.82197802197803,60.57533577533577,-1.3017578125,1.47802734375,0.5048828125,-3.07464599609375,0.8697509765625,1.6326904296875,-51.87887667887668,70.62124542124542,-93.41196581196581
52:21.842,0.09521484375,0.03759765625,2.1025390625,7.6751708984375,-24.90234375,126.2359619140625,-23.24053724053724,-26.23931623931624,48.88009768009768,-0.1064453125,-1.83154296875,0.55126953125,-10.772705078125,3.30352783203125,7.5225830078125,57.12673992673992,-69.42173382173382,62.074725274725274,-1.31005859375,1.44775390625,0.517578125,-1.89208984375,0.58746337890625,0.45013427734375,-50.52942612942613,72.27057387057387,-96.1108669108669
52:22.817,0.09521484375,0.03759765625,2.1025390625,5.68389892578125,-10.01739501953125,-13.25225830078125,-2.998778998778999,-28.338461538461537,50.22954822954823,-0.09521484375,-1.90966796875,0.45947265625,-1.41143798828125,14.22882080078125,1.007080078125,55.32747252747252,-71.97069597069597,63.57411477411477,-1.30224609375,1.45361328125,0.5517578125,-2.22015380859375,-1.73187255859375,2.9144287109375,-52.778510378510376,73.02026862026862,-96.4107448107448
52:23.695,0.01513671875,0.24072265625,2.01220703125,5.68389892578125,-10.01739501953125,-13.25225830078125,15.593650793650793,-26.98901098901099,52.628571428571426,-0.0693359375,-1.9169921875,0.47021484375,-5.950927734375,3.4332275390625,-3.9825439453125,55.77728937728938,-67.77240537240537,62.97435897435897,-1.29052734375,1.4794921875,0.52587890625,-0.396728515625,1.21307373046875,1.220703125,-53.52820512820512,70.92112332112332,-96.7106227106227
52:24.671,-0.26953125,0.04931640625,2.2060546875,2.4871826171875,33.2794189453125,-129.93621826171875,4.348229548229548,-26.23931623931624,54.27789987789988,-0.09716796875,-1.92919921875,0.50634765625,5.6304931640625,2.471923828125,-5.25665283203125,53.82808302808303,-67.92234432234432,60.425396825396824,-1.2890625,1.46728515625,0.53515625,0.6256103515625,1.12152099609375,2.81524658203125,-52.17875457875458,71.07106227106227,-95.2112332112332
52:25.596,0.2451171875,0.05126953125,1.962890625,3.7689208984375,50.96435546875,-167.65594482421875,4.348229548229548,-26.23931623931624,54.27789987789988,-0.01806640625,-1.89404296875,0.59423828125,1.48773193359375,-5.218505859375,-7.2021484375,54.727716727716725,-69.12185592185592,66.12307692307692,-1.30126953125,1.4619140625,0.53515625,-0.6561279296875,1.07574462890625,1.82342529296875,-51.279120879120875,72.27057387057387,-94.31159951159951
52:26.473,0.66796875,-0.013671875,2.01123046875,12.26806640625,20.2484130859375,-134.02557373046875,-2.399023199023199,-27.288888888888888,52.928449328449325,-0.01806640625,-1.89404296875,0.59423828125,1.48773193359375,-5.218505859375,-7.2021484375,54.877655677655675,-69.72161172161172,67.77240537240537,-1.30126953125,1.4619140625,0.53515625,-1.80816650390625,0.701904296875,1.7547607421875,-51.72893772893773,72.72039072039071,-94.61147741147741
52:27.448,0.6279296875,-0.09619140625,1.99951171875,5.7830810546875,9.94110107421875,-135.58197021484375,-20.69157509157509,-20.841514041514042,49.179975579975576,-0.095703125,-1.900390625,0.51171875,-6.195068359375,-1.8463134765625,-6.7138671875,55.17753357753357,-68.07228327228327,63.724053724053725,-1.28125,1.4736328125,0.53076171875,-0.8544921875,0.52642822265625,1.739501953125,-50.829304029304026,72.87032967032967,-95.2112332112332
52:28.423,0.90625,-0.08447265625,1.98291015625,7.720947265625,13.9617919921875,-83.16802978515625,-23.84029304029304,-16.943101343101343,48.13040293040293,-0.0390625,-1.91748046875,0.4423828125,-7.354736328125,0.4119873046875,-3.4942626953125,54.727716727716725,-70.32136752136752,62.37460317460317,-1.28125,1.4736328125,0.53076171875,-0.8544921875,0.52642822265625,1.739501953125,-49.179975579975576,74.06984126984126,-94.61147741147741
52:29.301,0.1943359375,0.11279296875,2.2587890625,-2.0751953125,16.0064697265625,15.73944091796875,-27.288888888888888,-16.043467643467643,45.88131868131868,-0.029296875,-1.91845703125,0.3837890625,-1.617431640625,3.63922119140625,-1.65557861328125,54.727716727716725,-70.32136752136752,62.37460317460317,-1.2900390625,1.48193359375,0.5146484375,-0.152587890625,0.9918212890625,1.44195556640625,-49.179975579975576,74.06984126984126,-94.61147741147741
52:30.179,0.5556640625,0.0791015625,1.97900390625,-10.5133056640625,-7.1563720703125,43.792724609375,-32.386813186813185,-14.094261294261294,47.53064713064713,0.0390625,-1.89599609375,0.46533203125,0.2288818359375,4.33349609375,-1.24359130859375,56.526984126984125,-69.87155067155066,60.125518925518925,-1.30126953125,1.46240234375,0.533203125,-2.06756591796875,0.9307861328125,1.2969970703125,-50.52942612942613,73.47008547008546,-94.61147741147741
52:31.251,0.84765625,-0.04345703125,1.97705078125,-10.36834716796875,-14.04571533203125,91.17889404296875,-33.88620268620269,-17.54285714285714,45.58144078144078,-0.02392578125,-1.8818359375,0.484375,-3.6163330078125,4.29534912109375,3.2958984375,56.826862026862024,-70.17142857142856,61.774847374847376,-1.29150390625,1.4736328125,0.5234375,-1.28173828125,0.98419189453125,1.373291015625,-50.52942612942613,73.47008547008546,-94.61147741147741
52:32.178,0.61962890625,-0.1171875,2.02734375,-10.62774658203125,-25.73394775390625,105.33905029296875,-24.88986568986569,-20.54163614163614,46.18119658119658,0.0,-1.91943359375,0.501953125,-1.40380859375,0.518798828125,3.23486328125,54.877655677655675,-70.77118437118438,63.873992673992674,-1.29052734375,1.47607421875,0.50146484375,-1.953125,0.99945068359375,0.823974609375,-49.62979242979243,72.87032967032967,-95.5111111111111
52:33.103,0.59326171875,-0.07177734375,2.06640625,-2.685546875,-10.38360595703125,94.27642822265625,-17.992673992673993,-24.589987789987788,47.98046398046398,-0.0341796875,-1.88916015625,0.50244140625,-4.05120849609375,-2.15911865234375,5.04302978515625,56.97680097680097,-71.07106227106227,63.42417582417582,-1.291015625,1.45703125,0.53125,-0.84686279296875,0.9918212890625,1.68609619140625,-51.72893772893773,71.52087912087912,-94.01172161172161
52:34.078,0.52490234375,-0.115234375,1.96875,-5.77545166015625,-28.29742431640625,120.4986572265625,-15.443711843711844,-24.44004884004884,48.88009768009768,0.01171875,-1.91064453125,0.53369140625,-3.76129150390625,-1.3580322265625,5.79833984375,56.826862026862024,-70.77118437118438,64.62368742368741,-1.29833984375,1.46435546875,0.5244140625,-1.33514404296875,1.06048583984375,1.57928466796875,-50.979242979242976,70.17142857142856,-92.96214896214896
52:34.956,0.46923828125,-0.23388671875,1.97216796875,1.59454345703125,-26.7333984375,124.2523193359375,-11.845177045177044,-27.288888888888888,47.08083028083028,-0.01611328125,-1.91455078125,0.49755859375,-6.4544677734375,0.28228759765625,4.37164306640625,57.72649572649573,-71.82075702075701,62.97435897435897,-1.29931640625,1.46728515625,0.490234375,-3.0517578125,1.3580322265625,1.24359130859375,-50.52942612942613,70.47130647130646,-94.31159951159951
52:35.833,0.46923828125,-0.23388671875,1.97216796875,1.8310546875,-17.6544189453125,125.74005126953125,-7.347008547008547,-27.738705738705736,48.88009768009768,-0.08837890625,-1.90869140625,0.44873046875,-2.66265869140625,0.87738037109375,7.4462890625,54.577777777777776,-70.47130647130646,64.17387057387057,-1.2890625,1.47119140625,0.53955078125,-3.50189208984375,0.3204345703125,1.190185546875,-51.279120879120875,73.02026862026862,-94.01172161172161
52:36.808,-0.22216796875,0.00830078125,2.10546875,9.58251953125,-6.08062744140625,119.659423828125,7.796825396825397,-26.23931623931624,51.87887667887668,-0.0869140625,-1.8994140625,0.48046875,-2.69317626953125,-5.1116943359375,7.05718994140625,56.526984126984125,-68.52210012210011,60.57533577533577,-1.28564453125,1.4677734375,0.52880859375,-0.9002685546875,1.8157958984375,1.88446044921875,-52.17875457875458,73.62002442002442,-95.2112332112332
52:37.686,0.091796875,0.13818359375,2.0830078125,9.58251953125,-6.08062744140625,119.659423828125,12.444932844932845,-28.338461538461537,53.228327228327224,-0.07421875,-1.8798828125,0.45703125,-3.2958984375,-4.0435791015625,8.36181640625,55.77728937728938,-68.52210012210011,62.67448107448107,-1.294921875,1.4609375,0.53466796875,-1.3580322265625,0.37384033203125,1.70135498046875,-52.17875457875458,71.82075702075701,-93.86178266178266
52:38.612,-0.22216796875,0.171875,2.15478515625,4.49371337890625,-5.89752197265625,95.916748046875,12.444932844932845,-28.338461538461537,53.228327228327224,-0.05859375,-1.90625,0.4521484375,-3.936767578125,1.8768310546875,7.6446533203125,55.77728937728938,-68.07228327228327,64.47374847374847,-1.29248046875,1.46875,0.53759765625,-0.213623046875,0.7476806640625,2.52532958984375,-51.429059829059824,72.57045177045177,-95.2112332112332
52:39.638,-0.6875,0.37939453125,2.2841796875,5.14984130859375,6.34002685546875,42.71697998046875,13.044688644688645,-26.83907203907204,55.47741147741147,-0.09814453125,-1.88037109375,0.49169921875,-3.82232666015625,8.67462158203125,2.22015380859375,53.82808302808303,-68.22222222222221,64.62368742368741,-1.28662109375,1.47021484375,0.51806640625,0.32806396484375,0.152587890625,2.4566650390625,-51.429059829059824,71.82075702075701,-93.86178266178266
52:40.660,0.4228515625,0.09765625,2.064453125,0.75531005859375,-4.486083984375,-20.39337158203125,16.343345543345542,-26.539194139194137,53.67814407814408,-0.115234375,-1.92626953125,0.5009765625,-4.14276123046875,3.6773681640625,-2.41851806640625,54.877655677655675,-66.87277167277168,62.82442002442002,-1.29443359375,1.46630859375,0.53466796875,-1.30462646484375,0.93841552734375,1.922607421875,-53.228327228327224,72.12063492063491,-95.2112332112332
52:41.683,-0.34814453125,0.09765625,2.06689453125,-6.88934326171875,21.05712890625,-83.282470703125,15.293772893772893,-24.88986568986569,55.32747252747252,-0.07568359375,-1.89013671875,0.484375,-4.9896240234375,3.44085693359375,-4.82940673828125,55.77728937728938,-68.07228327228327,63.724053724053725,-1.28369140625,1.4775390625,0.529296875,-0.17547607421875,0.77056884765625,2.2735595703125,-52.928449328449325,71.82075702075701,-94.91135531135531
52:42.610,-0.00927734375,0.0419921875,2.05078125,-7.62176513671875,20.3704833984375,-136.3372802734375,15.293772893772893,-24.88986568986569,55.32747252747252,-0.05322265625,-1.923828125,0.474609375,-4.1961669921875,1.434326171875,-6.44683837890625,54.577777777777776,-67.17264957264958,62.074725274725274,-1.2939453125,1.4697265625,0.537109375,-1.220703125,1.27410888671875,1.3427734375,-52.02881562881563,71.97069597069597,-94.31159951159951
52:43.634,0.220703125,0.02099609375,2.02880859375,3.82232666015625,26.79443359375,-162.9638671875,6.747252747252747,-27.288888888888888,53.228327228327224,-0.03564453125,-1.904296875,0.48681640625,-4.12750244140625,0.20599365234375,-4.24957275390625,55.17753357753357,-67.77240537240537,64.47374847374847,-1.29150390625,1.46826171875,0.53955078125,-0.3662109375,0.70953369140625,1.80816650390625,-52.17875457875458,71.07106227106227,-94.16166056166055
52:44.608,0.1796875,-0.01611328125,2.01611328125,10.162353515625,45.2117919921875,-149.3682861328125,-3.7484737484737485,-26.23931623931624,54.27789987789988,-0.03271484375,-1.90283203125,0.4912109375,-4.79888916015625,-2.11334228515625,-4.60052490234375,55.47741147741147,-69.87155067155066,63.724053724053725,-1.28369140625,1.47265625,0.5390625,0.3814697265625,0.5035400390625,2.5177001953125,-52.02881562881563,72.72039072039071,-94.01172161172161
52:45.535,0.52685546875,-0.09912109375,1.9716796875,4.31060791015625,34.47723388671875,-136.8865966796875,-9.895970695970696,-25.03980463980464,52.778510378510376,-0.03271484375,-1.90283203125,0.4912109375,-5.0048828125,-0.946044921875,-6.195068359375,56.377045177045176,-70.17142857142856,65.67326007326007,-1.28369140625,1.47265625,0.5390625,-2.03704833984375,0.58746337890625,1.556396484375,-52.628571428571426,72.12063492063491,-94.16166056166055
52:46.412,0.7900390625,-0.03857421875,1.97900390625,16.83807373046875,21.98028564453125,-125.22125244140625,-13.344566544566543,-24.14017094017094,48.13040293040293,-0.07275390625,-1.8896484375,0.521484375,-5.0048828125,-0.946044921875,-6.195068359375,53.82808302808303,-68.22222222222221,63.12429792429792,-1.28369140625,1.484375,0.53076171875,-0.38909912109375,0.244140625,1.65557861328125,-52.778510378510376,71.22100122100122,-95.66105006105006
52:47.436,0.72216796875,-0.0654296875,1.96044921875,4.72259521484375,39.51263427734375,-150.3448486328125,-22.49084249084249,-24.14017094017094,49.179975579975576,-0.0869140625,-1.896484375,0.50048828125,-5.02777099609375,-1.5411376953125,-8.1329345703125,54.877655677655675,-68.67203907203907,62.82442002442002,-1.2861328125,1.46435546875,0.53076171875,-0.06103515625,0.52642822265625,2.01416015625,-52.32869352869353,71.52087912087912,-94.61147741147741
52:48.362,0.56689453125,0.103515625,1.9501953125,16.2506103515625,34.61456298828125,-160.36224365234375,-17.992673992673993,-26.83907203907204,46.93089133089133,-0.00390625,-1.93603515625,0.490234375,5.157470703125,-8.7432861328125,-5.89752197265625,54.877655677655675,-68.67203907203907,62.82442002442002,-1.2939453125,1.46435546875,0.53271484375,-0.06103515625,0.52642822265625,2.01416015625,-52.17875457875458,71.07106227106227,-93.41196581196581
52:49.288,0.8603515625,0.14306640625,1.998046875,21.148681640625,28.60260009765625,-122.88665771484375,-22.34090354090354,-23.24053724053724,50.07960927960928,-0.0537109375,-1.91357421875,0.4775390625,-4.39453125,-1.86920166015625,-4.11224365234375,56.377045177045176,-68.97191697191697,63.873992673992674,-1.2822265625,1.46630859375,0.5380859375,0.3662109375,0.1220703125,2.25067138671875,-52.17875457875458,71.07106227106227,-93.41196581196581
52:50.166,0.94921875,0.14990234375,2.046875,31.88323974609375,43.49517822265625,-127.57110595703125,-28.488400488400487,-20.54163614163614,48.13040293040293,-0.02783203125,-1.9423828125,0.48095703125,-1.190185546875,-0.762939453125,-6.24847412109375,55.47741147741147,-69.12185592185592,62.67448107448107,-1.29296875,1.4677734375,0.533203125,-0.1678466796875,0.1678466796875,1.50299072265625,-49.92967032967033,71.52087912087912,-92.2124542124542
52:51.092,0.4521484375,0.1748046875,2.07861328125,26.78680419921875,36.14044189453125,-157.34100341796875,-29.687912087912085,-17.842735042735043,50.07960927960928,0.009765625,-1.90576171875,0.470703125,-3.0670166015625,-1.1138916015625,-2.84576416015625,54.577777777777776,-68.67203907203907,62.52454212454212,-1.3056640625,1.45166015625,0.5390625,1.01470947265625,0.17547607421875,2.7313232421875,-51.72893772893773,71.97069597069597,-94.61147741147741
52:51.970,0.6669921875,0.0751953125,1.9775390625,29.89959716796875,37.69683837890625,-150.99334716796875,-22.34090354090354,-22.19096459096459,50.67936507936508,-0.0341796875,-1.91650390625,0.47998046875,-5.126953125,2.197265625,-5.950927734375,54.577777777777776,-70.17142857142856,63.12429792429792,-1.28857421875,1.47900390625,0.5380859375,-0.92315673828125,0.77056884765625,1.91497802734375,-53.67814407814408,70.62124542124542,-95.5111111111111
52:52.896,0.8544921875,0.11767578125,1.955078125,28.50341796875,36.6668701171875,-147.705078125,-25.03980463980464,-18.892307692307693,49.62979242979243,-0.03955078125,-1.91748046875,0.47900390625,-4.425048828125,0.030517578125,-3.631591796875,54.577777777777776,-69.72161172161172,63.57411477411477,-1.28955078125,1.466796875,0.541015625,-0.1220703125,0.45013427734375,2.3345947265625,-51.279120879120875,71.52087912087912,-96.1108669108669
52:53.773,0.8544921875,0.11767578125,1.955078125,22.80426025390625,44.3115234375,-149.39117431640625,-29.83785103785104,-18.742368742368743,47.83052503052503,-0.04443359375,-1.90673828125,0.466796875,-2.61688232421875,1.3885498046875,-5.0201416015625,55.47741147741147,-68.52210012210011,62.67448107448107,-1.29736328125,1.45849609375,0.5537109375,1.07574462890625,0.51116943359375,2.471923828125,-52.32869352869353,72.27057387057387,-94.31159951159951
52:54.700,0.6982421875,0.05810546875,2.0712890625,22.80426025390625,44.3115234375,-149.39117431640625,-20.69157509157509,-23.09059829059829,49.179975579975576,-0.06787109375,-1.91552734375,0.48193359375,-5.4168701171875,0.58746337890625,-1.21307373046875,56.227106227106226,-69.57167277167277,63.42417582417582,-1.29833984375,1.466796875,0.5361328125,-0.69427490234375,1.129150390625,0.52642822265625,-51.429059829059824,72.12063492063491,-93.41196581196581
52:55.626,-0.00830078125,-0.1171875,2.0537109375,14.8162841796875,42.510986328125,-126.88446044921875,-20.69157509157509,-23.09059829059829,49.179975579975576,-0.05908203125,-1.904296875,0.478515625,-3.08990478515625,0.518798828125,-1.02996826171875,54.877655677655675,-69.72161172161172,64.17387057387057,-1.2841796875,1.46435546875,0.55615234375,0.87738037109375,0.6866455078125,1.91497802734375,-53.078388278388275,72.27057387057387,-96.1108669108669
52:56.552,0.03271484375,0.02392578125,2.10009765625,2.197265625,40.0390625,-130.71441650390625,-4.1982905982905985,-25.18974358974359,53.228327228327224,-0.05908203125,-1.904296875,0.478515625,-4.03594970703125,3.33404541015625,0.35858154296875,54.27789987789988,-71.22100122100122,63.873992673992674,-1.30078125,1.45947265625,0.54931640625,1.0528564453125,0.9918212890625,1.85394287109375,-52.778510378510376,72.27057387057387,-95.66105006105006
52:57.478,-0.216796875,0.02783203125,2.11669921875,-1.45721435546875,27.32086181640625,-121.26922607421875,0.7496947496947497,-27.738705738705736,49.92967032967033,-0.05224609375,-1.90869140625,0.51171875,-4.03594970703125,3.33404541015625,0.35858154296875,54.577777777777776,-68.67203907203907,65.22344322344323,-1.30078125,1.45947265625,0.54931640625,0.4730224609375,0.83160400390625,1.67083740234375,-52.17875457875458,72.12063492063491,-95.2112332112332
52:58.502,-0.1533203125,0.0419921875,2.1220703125,-5.34820556640625,31.06689453125,-83.68682861328125,6.597313797313797,-26.08937728937729,52.778510378510376,-0.080078125,-1.88916015625,0.49560546875,-3.53240966796875,4.8065185546875,1.708984375,53.52820512820512,-70.17142857142856,64.92356532356533,-1.294921875,1.46044921875,0.5537109375,0.32806396484375,0.74005126953125,2.01416015625,-49.92967032967033,71.22100122100122,-94.31159951159951
52:59.380,-0.2841796875,0.03466796875,2.1689453125,-3.01361083984375,25.99334716796875,-44.12841796875,14.394139194139193,-27.13894993894994,53.078388278388275,-0.09326171875,-1.8876953125,0.501953125,-3.53240966796875,4.8065185546875,1.708984375,53.52820512820512,-70.17142857142856,64.92356532356533,-1.298828125,1.46630859375,0.53466796875,0.32806396484375,0.74005126953125,2.01416015625,-52.32869352869353,72.72039072039071,-93.56190476190476
53:00.306,0.29248046875,0.0732421875,1.9091796875,3.2958984375,-7.24029541015625,-6.44683837890625,14.694017094017093,-25.03980463980464,52.02881562881563,-0.05029296875,-1.869140625,0.5078125,-3.88336181640625,8.88824462890625,2.99835205078125,54.727716727716725,-68.82197802197803,62.37460317460317,-1.28564453125,1.4658203125,0.5361328125,0.6561279296875,0.79345703125,2.0751953125,-52.32869352869353,72.72039072039071,-93.56190476190476
53:01.184,-0.65380859375,0.4541015625,2.29736328125,3.11279296875,7.60650634765625,45.52459716796875,18.142612942612942,-25.93943833943834,55.027594627594624,-0.07470703125,-1.904296875,0.4931640625,-2.73895263671875,-1.0833740234375,5.06591796875,54.427838827838826,-68.52210012210011,64.47374847374847,-1.283203125,1.45068359375,0.55419921875,0.67901611328125,0.1373291015625,1.89208984375,-52.32869352869353,72.72039072039071,-94.31159951159951
53:02.061,0.04443359375,0.23583984375,2.11474609375,14.45770263671875,-9.0179443359375,129.7149658203125,17.842735042735043,-24.589987789987788,55.47741147741147,-0.0634765625,-1.8916015625,0.5146484375,-6.0272216796875,-9.8114013671875,4.43267822265625,56.97680097680097,-67.32258852258852,64.47374847374847,-1.28857421875,1.4716796875,0.5390625,-0.8544921875,1.0986328125,1.86920166015625,-53.228327228327224,71.82075702075701,-95.2112332112332
53:02.987,0.193359375,-0.14453125,2.03125,-6.26373291015625,-44.7998046875,117.60711669921875,11.395360195360196,-26.23931623931624,52.17875457875458,-0.05224609375,-1.89990234375,0.49365234375,-4.18853759765625,-6.98089599609375,4.852294921875,56.377045177045176,-69.72161172161172,64.92356532356533,-1.30322265625,1.455078125,0.546875,-4.3792724609375,1.27410888671875,0.51116943359375,-53.52820512820512,69.72161172161172,-94.61147741147741
53:03.865,0.21044921875,-0.123046875,2.087890625,-12.9852294921875,-33.1268310546875,142.730712890625,1.1995115995115995,-26.98901098901099,47.83052503052503,-0.0244140625,-1.91357421875,0.54736328125,-3.96728515625,-1.93023681640625,4.0130615234375,56.227106227106226,-69.57167277167277,64.47374847374847,-1.28857421875,1.45458984375,0.55615234375,-3.143310546875,0.54168701171875,1.21307373046875,-51.429059829059824,71.37094017094017,-93.86178266178266
53:04.889,0.63916015625,0.0634765625,2.00732421875,-16.0369873046875,-32.8369140625,139.33563232421875,-8.246642246642246,-26.08937728937729,49.329914529914525,-0.02197265625,-1.87158203125,0.52978515625,-7.3089599609375,-3.7841796875,4.119873046875,56.07716727716728,-69.72161172161172,64.92356532356533,-1.29638671875,1.45703125,0.5322265625,-3.5400390625,1.47247314453125,0.91552734375,-52.628571428571426,71.82075702075701,-93.86178266178266
53:05.815,0.63916015625,0.0634765625,2.00732421875,-30.60150146484375,-33.31756591796875,115.142822265625,-20.841514041514042,-27.13894993894994,49.329914529914525,-0.02783203125,-1.90185546875,0.49462890625,-3.4942626953125,5.615234375,4.39453125,56.07716727716728,-69.72161172161172,65.97313797313797,-1.28857421875,1.470703125,0.54150390625,-2.716064453125,1.02996826171875,0.74005126953125,-52.778510378510376,72.27057387057387,-96.4107448107448
53:06.692,0.57373046875,-0.04541015625,1.99169921875,-30.60150146484375,-33.31756591796875,115.142822265625,-24.88986568986569,-21.29133089133089,46.48107448107448,0.01513671875,-1.89794921875,0.5029296875,-5.7525634765625,4.95147705078125,5.2490234375,56.227106227106226,-66.57289377289376,63.42417582417582,-1.28955078125,1.4580078125,0.5625,-2.03704833984375,0.946044921875,1.5716552734375,-51.429059829059824,71.37094017094017,-94.46153846153845
53:07.619,0.560546875,0.04833984375,2.07666015625,-21.8353271484375,-40.80963134765625,147.54486083984375,-24.88986568986569,-21.29133089133089,46.48107448107448,-0.0087890625,-1.8603515625,0.4990234375,-2.50244140625,-3.12042236328125,5.27191162109375,56.07716727716728,-69.72161172161172,63.57411477411477,-1.2900390625,1.462890625,0.53466796875,-3.08990478515625,1.09100341796875,1.2054443359375,-52.628571428571426,71.82075702075701,-95.96092796092796
53:08.545,0.3583984375,0.056640625,2.00634765625,-16.7236328125,-27.47344970703125,153.83148193359375,-22.64078144078144,-23.54041514041514,46.63101343101343,-0.0087890625,-1.8603515625,0.4990234375,-2.8839111328125,-1.556396484375,5.11932373046875,56.526984126984125,-70.32136752136752,65.07350427350427,-1.30322265625,1.46337890625,0.5556640625,-1.6937255859375,0.93841552734375,1.25885009765625,-51.279120879120875,74.06984126984126,-94.01172161172161
53:09.422,0.25244140625,-0.19091796875,2.005859375,-5.47027587890625,-30.45654296875,144.03533935546875,-13.944322344322345,-25.18974358974359,49.179975579975576,-0.0302734375,-1.90234375,0.49365234375,-2.8839111328125,-1.556396484375,5.11932373046875,54.27789987789988,-70.77118437118438,62.82442002442002,-1.30322265625,1.46337890625,0.5556640625,-1.6937255859375,0.93841552734375,1.25885009765625,-50.22954822954823,69.12185592185592,-95.06129426129426
53:10.330,-0.033203125,-0.02783203125,2.10205078125,-19.0582275390625,-28.58734130859375,146.38519287109375,-2.998778998778999,-27.738705738705736,51.279120879120875,-0.05322265625,-1.93115234375,0.48779296875,-2.32696533203125,-0.29754638671875,11.810302734375,54.27789987789988,-70.77118437118438,62.82442002442002,-1.28759765625,1.4716796875,0.5361328125,-0.93841552734375,0.29754638671875,2.32696533203125,-53.52820512820512,73.02026862026862,-94.31159951159951
53:11.226,0.21728515625,-0.06982421875,2.0419921875,-2.70843505859375,-29.12139892578125,132.04193115234375,1.799267399267399,-25.93943833943834,55.32747252747252,-0.0888671875,-1.9326171875,0.43603515625,-3.05938720703125,0.1068115234375,10.85662841796875,55.17753357753357,-69.57167277167277,62.97435897435897,-1.29736328125,1.46630859375,0.53271484375,1.18255615234375,-0.74005126953125,2.46429443359375,-53.52820512820512,73.02026862026862,-94.31159951159951
53:12.153,0.05908203125,0.10498046875,2.0546875,2.52532958984375,-23.35357666015625,115.91339111328125,1.6493284493284492,-28.188522588522588,51.72893772893773,-0.09130859375,-1.84912109375,0.47265625,-4.8828125,-5.218505859375,10.009765625,56.377045177045176,-66.87277167277168,60.72527472527472,-1.296875,1.46923828125,0.5302734375,-2.29644775390625,1.708984375,1.251220703125,-51.129181929181925,72.12063492063491,-95.96092796092796
53:13.176,-0.2568359375,0.16845703125,2.29736328125,11.2152099609375,-15.380859375,113.7542724609375,7.197069597069596,-27.288888888888888,53.67814407814408,-0.064453125,-1.8857421875,0.423828125,-2.28118896484375,5.33294677734375,6.47735595703125,56.227106227106226,-67.77240537240537,62.97435897435897,-1.29638671875,1.46240234375,0.5185546875,-2.02178955078125,1.04522705078125,1.39617919921875,-51.129181929181925,72.87032967032967,-94.46153846153845
53:14.151,-0.595703125,0.61279296875,2.26806640625,-8.11767578125,4.66156005859375,-10.07843017578125,8.696459096459096,-29.687912087912085,48.73015873015873,-0.07421875,-1.9267578125,0.31982421875,-5.77545166015625,20.25604248046875,8.58306884765625,56.227106227106226,-70.62124542124542,60.87521367521367,-1.2822265625,1.4775390625,0.53662109375,1.983642578125,0.05340576171875,3.4942626953125,-52.778510378510376,72.72039072039071,-94.01172161172161
