time,hand_accelerometer_x,hand_accelerometer_y,hand_accelerometer_z,hand_gyroscope_x,hand_gyroscope_y,hand_gyroscope_z,hand_magnetometer_x,hand_magnetometer_y,hand_magnetometer_z,ankle_accelerometer_x,ankle_accelerometer_y,ankle_accelerometer_z,ankle_gyroscope_x,ankle_gyroscope_y,ankle_gyroscope_z,ankle_magnetometer_x,ankle_magnetometer_y,ankle_magnetometer_z,chest_accelerometer_x,chest_accelerometer_y,chest_accelerometer_z,chest_gyroscope_x,chest_gyroscope_y,chest_gyroscope_z,chest_magnetometer_x,chest_magnetometer_y,chest_magnetometer_z
51:19.475,0.7470703125,0.32958984375,1.90087890625,-0.90789794921875,1.53350830078125,-0.396728515625,24.589987789987788,-17.842735042735043,69.42173382173382,-0.22509765625,2.017578125,0.1015625,-3.34930419921875,-0.40435791015625,0.99945068359375,-41.38315018315018,-111.55457875457876,-1.799267399267399,0.16357421875,1.53857421875,-1.287109375,-0.99945068359375,0.89263916015625,1.83868408203125,-93.56190476190476,-19.64200244200244,-20.69157509157509
51:20.304,0.94921875,-0.37158203125,2.06201171875,-11.016845703125,0.84686279296875,13.8702392578125,22.49084249084249,-16.043467643467643,69.12185592185592,-0.20556640625,2.025390625,-0.013671875,-1.39617919921875,-12.21466064453125,-2.05230712890625,-41.683028083028084,-110.804884004884,-1.4993894993894994,0.150390625,1.53125,-1.29638671875,0.05340576171875,0.9002685546875,1.5411376953125,-94.46153846153845,-19.49206349206349,-23.99023199023199
51:21.328,0.66796875,0.25537109375,1.95263671875,-2.11334228515625,-7.56072998046875,-21.61407470703125,10.045909645909646,-22.64078144078144,71.67081807081807,-0.3134765625,2.00244140625,0.06298828125,-15.380859375,12.63427734375,1.74713134765625,-41.832967032967034,-108.85567765567765,-2.998778998778999,0.17041015625,1.5302734375,-1.29296875,-0.3204345703125,1.22833251953125,0.95367431640625,-94.46153846153845,-19.49206349206349,-23.99023199023199
51:22.157,0.861328125,0.92919921875,1.70947265625,-1.48773193359375,0.457763671875,-31.951904296875,16.64322344322344,-17.992673992673993,72.42051282051281,-0.28662109375,1.98486328125,0.1767578125,-8.331298828125,1.7852783203125,0.92315673828125,-40.93333333333333,-107.806105006105,-0.7496947496947497,0.15869140625,1.52880859375,-1.2958984375,-0.823974609375,0.91552734375,1.5716552734375,-93.71184371184371,-18.29255189255189,-22.64078144078144
51:22.985,0.82275390625,1.18603515625,1.7265625,1.8157958984375,5.21087646484375,-2.09808349609375,17.242979242979242,-14.993894993894994,68.37216117216117,-0.27734375,1.99462890625,0.17138671875,-10.2386474609375,5.1116943359375,3.4027099609375,-40.033699633699634,-109.45543345543345,0.7496947496947497,0.1552734375,1.5234375,-1.3017578125,-0.83160400390625,1.25885009765625,1.39617919921875,-93.56190476190476,-17.842735042735043,-23.09059829059829
51:23.765,0.82275390625,1.18603515625,1.7265625,1.8157958984375,5.21087646484375,-2.09808349609375,18.44249084249084,-14.094261294261294,69.27179487179487,-0.28564453125,1.95263671875,0.2099609375,-1.04522705078125,-1.6326904296875,-0.9918212890625,-39.883760683760684,-109.0056166056166,0.29987789987789987,0.16796875,1.53173828125,-1.2822265625,-1.7547607421875,0.6866455078125,2.09808349609375,-93.41196581196581,-17.992673992673993,-22.19096459096459
51:24.594,0.775390625,1.1572265625,1.6064453125,0.81634521484375,3.1280517578125,19.66094970703125,18.44249084249084,-14.094261294261294,69.27179487179487,-0.28564453125,1.95263671875,0.2099609375,2.67791748046875,-5.24139404296875,-3.19671630859375,-41.38315018315018,-109.75531135531135,5.247863247863248,0.16796875,1.53173828125,-1.2822265625,-2.11334228515625,0.1678466796875,2.7923583984375,-94.61147741147741,-17.842735042735043,-23.09059829059829
51:25.472,0.810546875,0.67919921875,1.80908203125,1.64794921875,2.55584716796875,27.2369384765625,18.59242979242979,-13.944322344322345,67.02271062271062,-0.29345703125,1.98583984375,0.1689453125,2.67791748046875,-5.24139404296875,-3.19671630859375,-40.48351648351648,-110.65494505494505,0.4498168498168498,0.15673828125,1.53515625,-1.28076171875,-2.11334228515625,0.1678466796875,2.7923583984375,-92.66227106227106,-17.992673992673993,-23.690354090354088
51:26.349,0.14453125,-0.57275390625,2.31494140625,4.669189453125,7.62176513671875,0.37384033203125,14.394139194139193,-18.29255189255189,71.52087912087912,-0.28466796875,2.06201171875,0.0625,3.173828125,-14.1448974609375,2.7008056640625,-40.48351648351648,-110.65494505494505,0.4498168498168498,0.15673828125,1.53173828125,-1.2978515625,-0.48065185546875,0.54168701171875,1.708984375,-92.66227106227106,-17.992673992673993,-23.690354090354088
51:27.178,0.7177734375,0.32373046875,1.90087890625,1.4801025390625,5.53131103515625,-7.32421875,8.396581196581197,-22.79072039072039,70.77118437118438,-0.25244140625,2.0009765625,0.11376953125,-11.2152099609375,4.913330078125,0.26702880859375,-39.733821733821735,-108.85567765567765,-1.6493284493284492,0.1591796875,1.521484375,-1.3076171875,-0.83160400390625,1.24359130859375,0.9918212890625,-93.11208791208792,-17.39291819291819,-21.741147741147742
51:27.958,0.7177734375,0.32373046875,1.90087890625,-6.81304931640625,-4.12750244140625,-0.823974609375,16.193406593406593,-20.69157509157509,71.52087912087912,-0.2841796875,1.96044921875,0.193359375,-4.08935546875,2.22015380859375,0.48828125,-39.733821733821735,-109.45543345543345,-0.29987789987789987,0.15478515625,1.5244140625,-1.2958984375,-1.6326904296875,0.95367431640625,1.9073486328125,-92.36239316239316,-17.842735042735043,-23.39047619047619
51:28.738,0.875,0.80126953125,1.7392578125,-6.81304931640625,-4.12750244140625,-0.823974609375,18.142612942612942,-18.742368742368743,67.62246642246642,-0.34423828125,1.96435546875,0.22998046875,-1.8157958984375,2.655029296875,-0.4425048828125,-41.683028083028084,-109.0056166056166,3.4485958485958483,0.14990234375,1.53125,-1.29150390625,-2.67791748046875,-0.48828125,3.51715087890625,-94.46153846153845,-16.943101343101343,-22.64078144078144
51:29.567,0.85498046875,0.88720703125,1.71484375,-1.5106201171875,3.936767578125,34.5001220703125,18.142612942612942,-18.742368742368743,67.62246642246642,-0.34423828125,1.96435546875,0.22998046875,11.0015869140625,-3.50189208984375,-1.495361328125,-41.08327228327228,-109.45543345543345,2.249084249084249,0.14990234375,1.53125,-1.29150390625,-0.81634521484375,1.15203857421875,1.51824951171875,-94.76141636141635,-18.742368742368743,-20.54163614163614
51:30.444,0.615234375,0.08349609375,2.015625,6.99615478515625,0.25177001953125,9.4757080078125,16.193406593406593,-17.093040293040293,66.42295482295482,-0.34130859375,2.009765625,0.1484375,11.0015869140625,-3.50189208984375,-1.495361328125,-40.78339438339438,-108.4058608058608,1.4993894993894994,0.1552734375,1.5244140625,-1.296875,-0.55694580078125,0.640869140625,1.8768310546875,-94.46153846153845,-18.29255189255189,-21.14139194139194
51:31.419,0.37451171875,-0.0068359375,2.05712890625,-4.0740966796875,5.86700439453125,1.04522705078125,11.245421245421245,-21.741147741147742,71.22100122100122,-0.24951171875,2.0205078125,0.1162109375,-5.950927734375,-2.38800048828125,0.99945068359375,-40.63345543345543,-109.0056166056166,-0.4498168498168498,0.15869140625,1.53369140625,-1.29296875,-0.55694580078125,0.640869140625,1.8768310546875,-93.86178266178266,-19.19218559218559,-21.741147741147742
51:32.394,0.84326171875,0.419921875,1.8564453125,-0.54931640625,2.4566650390625,-17.14324951171875,9.146275946275946,-23.99023199023199,69.12185592185592,-0.31298828125,1.99658203125,0.13134765625,-10.94818115234375,7.01141357421875,1.89208984375,-40.63345543345543,-109.0056166056166,-0.4498168498168498,0.1494140625,1.521484375,-1.30224609375,-0.61798095703125,1.28936767578125,1.02996826171875,-93.86178266178266,-19.19218559218559,-21.741147741147742
51:33.272,0.76708984375,0.5732421875,1.8447265625,-6.3934326171875,-2.95257568359375,6.7291259765625,13.344566544566543,-21.14139194139194,70.17142857142856,-0.3173828125,1.97802734375,0.23779296875,-3.30352783203125,2.0599365234375,0.640869140625,-41.38315018315018,-109.75531135531135,-0.4498168498168498,0.15283203125,1.52587890625,-1.29833984375,-2.2735595703125,0.3509521484375,2.67791748046875,-94.91135531135531,-18.59242979242979,-22.34090354090354
51:34.150,0.7314453125,0.2890625,1.9482421875,8.1787109375,-3.15093994140625,16.204833984375,15.743589743589743,-14.694017094017093,65.67326007326007,-0.34228515625,2.025390625,0.14013671875,6.0272216796875,0.29754638671875,-0.48828125,-40.93333333333333,-108.25592185592186,3.7484737484737485,0.17138671875,1.52880859375,-1.28857421875,-1.6326904296875,0.4425048828125,2.20489501953125,-94.46153846153845,-18.29255189255189,-23.24053724053724
51:35.027,0.84130859375,0.7880859375,1.78125,0.66375732421875,0.63323974609375,11.9476318359375,11.695238095238095,-22.04102564102564,67.92234432234432,-0.40283203125,1.9453125,0.14306640625,1.39617919921875,-1.13677978515625,-3.83758544921875,-40.48351648351648,-108.4058608058608,1.1995115995115995,0.14697265625,1.525390625,-1.306640625,-1.15966796875,1.068115234375,1.62506103515625,-94.61147741147741,-19.19218559218559,-22.34090354090354
51:35.904,0.84130859375,0.7880859375,1.78125,2.05230712890625,-16.0064697265625,17.1051025390625,15.593650793650793,-18.44249084249084,65.52332112332113,-0.29443359375,2.01416015625,0.13720703125,2.02178955078125,-5.035400390625,1.06048583984375,-40.93333333333333,-108.25592185592186,2.399023199023199,0.1435546875,1.5263671875,-1.30615234375,-0.23651123046875,1.12152099609375,1.5411376953125,-93.11208791208792,-17.39291819291819,-22.79072039072039
51:36.782,0.86669921875,0.0458984375,1.93359375,2.05230712890625,-16.0064697265625,17.1051025390625,12.444932844932845,-21.59120879120879,67.62246642246642,-0.3515625,1.9765625,0.09765625,-11.95526123046875,4.9591064453125,1.2359619140625,-40.033699633699634,-109.45543345543345,0.14993894993894993,0.142578125,1.5283203125,-1.28857421875,0.08392333984375,1.70135498046875,0.38909912109375,-94.46153846153845,-18.742368742368743,-20.841514041514042
51:37.562,0.81982421875,0.3701171875,1.87353515625,-11.86370849609375,-1.2664794921875,-25.23040771484375,12.444932844932845,-21.59120879120879,67.62246642246642,-0.3515625,1.9765625,0.09765625,-11.95526123046875,4.9591064453125,1.2359619140625,-41.08327228327228,-107.65616605616606,-0.5997557997557997,0.142578125,1.5283203125,-1.28857421875,0.08392333984375,1.70135498046875,0.38909912109375,-94.01172161172161,-18.29255189255189,-20.54163614163614
51:38.342,0.88232421875,1.22607421875,1.6376953125,-1.74713134765625,2.34222412109375,-6.256103515625,12.145054945054945,-22.34090354090354,67.32258852258852,-0.279296875,2.00390625,0.16357421875,-5.218505859375,1.79290771484375,1.27410888671875,-41.08327228327228,-107.65616605616606,-0.5997557997557997,0.14599609375,1.5283203125,-1.30517578125,-1.25885009765625,0.78582763671875,1.97601318359375,-94.01172161172161,-18.29255189255189,-20.54163614163614
51:39.122,0.76416015625,0.55615234375,1.8232421875,6.09588623046875,1.8463134765625,20.85113525390625,18.59242979242979,-18.892307692307693,65.07350427350427,-0.302734375,1.9951171875,0.06201171875,3.3721923828125,-0.60272216796875,-0.22125244140625,-42.43272283272283,-106.75653235653235,-1.4993894993894994,0.14306640625,1.5244140625,-1.29052734375,-1.51824951171875,0.90789794921875,1.96075439453125,-96.1108669108669,-18.142612942612942,-23.09059829059829
51:40.000,0.69580078125,0.39794921875,1.89111328125,-0.16021728515625,5.79071044921875,3.83758544921875,15.293772893772893,-18.44249084249084,67.32258852258852,-0.296875,1.99462890625,0.07666015625,-6.7291259765625,-2.38800048828125,0.5035400390625,-40.78339438339438,-107.65616605616606,-1.3494505494505493,0.1533203125,1.5185546875,-1.287109375,0.37384033203125,2.044677734375,0.3204345703125,-95.2112332112332,-18.29255189255189,-22.19096459096459
51:40.779,0.69580078125,0.39794921875,1.89111328125,-0.16021728515625,5.79071044921875,3.83758544921875,14.694017094017093,-17.842735042735043,65.67326007326007,-0.3583984375,1.98388671875,0.0537109375,-10.18524169921875,9.3536376953125,-0.09918212890625,-40.18363858363858,-109.0056166056166,-0.4498168498168498,0.1357421875,1.5205078125,-1.29541015625,-0.6103515625,1.4190673828125,0.98419189453125,-95.810989010989,-17.242979242979242,-23.24053724053724
51:41.559,0.75732421875,0.46142578125,1.83935546875,-7.5225830078125,1.6326904296875,-36.62109375,14.694017094017093,-17.842735042735043,65.67326007326007,-0.3583984375,1.98388671875,0.0537109375,-10.18524169921875,9.3536376953125,-0.09918212890625,-40.033699633699634,-108.1059829059829,-1.9492063492063492,0.1357421875,1.5205078125,-1.29541015625,-0.6103515625,1.4190673828125,0.98419189453125,-93.86178266178266,-17.39291819291819,-21.44126984126984
51:42.388,0.802734375,0.4794921875,1.87548828125,-3.326416015625,-2.593994140625,-22.56011962890625,15.443711843711844,-14.694017094017093,63.724053724053725,-0.3671875,1.98974609375,0.1015625,-9.31549072265625,-3.11279296875,1.8463134765625,-40.033699633699634,-108.1059829059829,-1.9492063492063492,0.1328125,1.52978515625,-1.28759765625,0.40435791015625,1.52587890625,0.54931640625,-93.86178266178266,-17.39291819291819,-21.44126984126984
51:43.217,0.8935546875,1.1640625,1.60791015625,7.5225830078125,6.67572021484375,-7.14111328125,17.39291819291819,-14.843956043956043,63.873992673992674,-0.3349609375,1.98876953125,0.2333984375,-10.040283203125,1.41143798828125,3.63922119140625,-41.683028083028084,-106.75653235653235,-1.1995115995115995,0.13525390625,1.52783203125,-1.30517578125,-2.51007080078125,-0.02288818359375,3.28826904296875,-94.91135531135531,-17.39291819291819,-22.79072039072039
51:44.094,0.64501953125,0.251953125,1.9599609375,4.180908203125,-1.2054443359375,0.1983642578125,18.29255189255189,-17.54285714285714,63.27423687423687,-0.40185546875,1.92578125,0.1787109375,9.59014892578125,-2.41851806640625,-7.30133056640625,-41.832967032967034,-106.6065934065934,3.2986568986568985,0.134765625,1.525390625,-1.2890625,-0.78582763671875,0.17547607421875,1.4801025390625,-95.810989010989,-18.742368742368743,-22.94065934065934
51:44.923,0.64501953125,0.251953125,1.9599609375,-4.5013427734375,-2.685546875,6.7901611328125,7.197069597069596,-17.992673992673993,62.52454212454212,-0.548828125,1.9775390625,-0.04248046875,-1.65557861328125,-1.5411376953125,4.64630126953125,-40.033699633699634,-105.10720390720391,3.8984126984126983,0.12158203125,1.52587890625,-1.30419921875,-0.5645751953125,1.3275146484375,1.50299072265625,-94.46153846153845,-19.042246642246642,-21.89108669108669
51:45.752,0.6689453125,0.36181640625,1.853515625,-4.5013427734375,-2.685546875,6.7901611328125,7.197069597069596,-17.992673992673993,62.52454212454212,-0.58740234375,1.9501953125,-0.01171875,-4.608154296875,0.4730224609375,1.19781494140625,-41.683028083028084,-104.5074481074481,-3.598534798534798,0.12158203125,1.515625,-1.306640625,-1.10626220703125,0.87738037109375,1.9989013671875,-96.4107448107448,-18.142612942612942,-22.79072039072039
51:46.534,0.73828125,0.56640625,1.8486328125,0.98419189453125,0.9002685546875,1.2054443359375,0.29987789987789987,-18.29255189255189,55.47741147741147,-0.58740234375,1.9501953125,-0.01171875,-4.608154296875,0.4730224609375,1.19781494140625,-38.68424908424908,-104.05763125763126,-1.6493284493284492,0.12158203125,1.515625,-1.306640625,-1.10626220703125,0.87738037109375,1.9989013671875,-95.66105006105006,-18.59242979242979,-22.34090354090354
51:47.312,0.7119140625,0.2138671875,1.96533203125,5.5389404296875,-2.70843505859375,10.5438232421875,2.399023199023199,-16.043467643467643,57.12673992673992,-0.41015625,1.9853515625,0.0380859375,4.5013427734375,-5.06591796875,2.197265625,-38.68424908424908,-104.05763125763126,-1.6493284493284492,0.12646484375,1.5244140625,-1.30078125,-0.9765625,1.373291015625,1.01470947265625,-95.66105006105006,-18.59242979242979,-22.34090354090354
51:48.092,0.78466796875,0.66796875,1.83740234375,-3.48663330078125,-4.21905517578125,-23.93341064453125,6.297435897435897,-18.59242979242979,61.924786324786325,-0.42431640625,1.94873046875,0.1181640625,-1.16729736328125,0.091552734375,-0.2288818359375,-39.733821733821735,-105.55702075702075,-0.29987789987789987,0.10009765625,1.5185546875,-1.30078125,-2.4871826171875,-0.51116943359375,3.1890869140625,-96.56068376068376,-16.193406593406593,-23.24053724053724
51:48.921,0.41259765625,-0.275390625,2.17333984375,7.568359375,0.091552734375,-9.40704345703125,8.846398046398047,-20.24175824175824,62.82442002442002,-0.4189453125,1.9853515625,0.083984375,6.683349609375,-6.16455078125,-0.75531005859375,-40.78339438339438,-106.9064713064713,2.848840048840049,0.10400390625,1.5205078125,-1.31103515625,-0.1068115234375,1.60980224609375,0.41961669921875,-96.4107448107448,-17.093040293040293,-23.09059829059829
51:49.798,0.41259765625,-0.275390625,2.17333984375,7.568359375,0.091552734375,-9.40704345703125,2.249084249084249,-23.690354090354088,60.425396825396824,-0.453125,1.99365234375,-0.0087890625,-10.2996826171875,2.28118896484375,2.54058837890625,-39.883760683760684,-105.25714285714285,0.29987789987789987,0.11376953125,1.51513671875,-1.31591796875,0.37384033203125,1.82342529296875,0.9002685546875,-94.46153846153845,-17.242979242979242,-23.99023199023199
51:50.627,0.64404296875,0.2255859375,1.986328125,-15.5487060546875,4.21905517578125,-6.73675537109375,2.249084249084249,-23.690354090354088,60.425396825396824,-0.453125,1.99365234375,-0.0087890625,-3.0517578125,5.19561767578125,-2.86865234375,-39.28400488400488,-104.807326007326,-0.29987789987789987,0.11376953125,1.51513671875,-1.31591796875,0.09918212890625,1.5106201171875,0.75531005859375,-97.01050061050061,-16.49328449328449,-25.33968253968254
51:51.407,0.7509765625,0.57861328125,1.845703125,-11.1846923828125,-3.39508056640625,-22.69744873046875,5.547741147741148,-21.44126984126984,60.275457875457874,-0.47802734375,1.96337890625,0.06591796875,-3.0517578125,5.19561767578125,-2.86865234375,-39.28400488400488,-104.807326007326,-0.29987789987789987,0.1044921875,1.5166015625,-1.30712890625,0.09918212890625,1.5106201171875,0.75531005859375,-97.01050061050061,-16.49328449328449,-25.33968253968254
51:52.236,0.81005859375,0.7890625,1.76611328125,-10.101318359375,-0.335693359375,-12.664794921875,8.696459096459096,-16.793162393162394,61.924786324786325,-0.595703125,1.9599609375,-0.064453125,-3.72314453125,4.82177734375,1.80816650390625,-41.683028083028084,-106.0068376068376,2.399023199023199,0.0927734375,1.51513671875,-1.318359375,-0.6866455078125,1.48773193359375,1.0528564453125,-94.91135531135531,-17.093040293040293,-24.14017094017094
51:53.066,1.08056640625,1.19091796875,1.60791015625,0.823974609375,-1.64031982421875,35.62164306640625,9.596092796092796,-14.094261294261294,59.37582417582417,-0.4287109375,1.91064453125,0.1259765625,-9.25445556640625,-25.27618408203125,5.0811767578125,-39.733821733821735,-103.3079365079365,-1.3494505494505493,0.0966796875,1.5126953125,-1.32861328125,-3.15093994140625,0.5950927734375,3.15093994140625,-95.5111111111111,-17.992673992673993,-24.739926739926737
51:53.942,1.08056640625,1.19091796875,1.60791015625,8.33892822265625,4.5623779296875,-2.86865234375,14.394139194139193,-15.443711843711844,61.32503052503052,-0.259765625,2.06396484375,0.13134765625,5.13458251953125,7.4005126953125,-0.9918212890625,-39.733821733821735,-107.35628815628816,3.598534798534798,0.0908203125,1.53564453125,-1.29541015625,-0.30517578125,0.75531005859375,1.67083740234375,-95.36117216117216,-17.093040293040293,-22.04102564102564
51:54.771,0.4482421875,-0.54833984375,2.24609375,8.33892822265625,4.5623779296875,-2.86865234375,9.596092796092796,-23.690354090354088,67.32258852258852,-0.37353515625,1.9951171875,0.10205078125,-10.07080078125,9.4451904296875,4.08935546875,-40.033699633699634,-110.2051282051282,0.4498168498168498,0.13720703125,1.515625,-1.31005859375,0.7781982421875,1.91497802734375,0.22125244140625,-96.7106227106227,-17.842735042735043,-22.04102564102564
51:55.697,0.79052734375,0.171875,1.92822265625,-18.89801025390625,1.54876708984375,-32.5927734375,9.596092796092796,-23.690354090354088,67.32258852258852,-0.37353515625,1.9951171875,0.10205078125,-5.60760498046875,11.71112060546875,-2.655029296875,-38.98412698412698,-108.1059829059829,1.1995115995115995,0.10498046875,1.52294921875,-1.333984375,-0.2899169921875,1.42669677734375,0.55694580078125,-94.91135531135531,-17.842735042735043,-24.44004884004884
51:56.526,0.857421875,1.0791015625,1.6142578125,-2.18963623046875,2.288818359375,-31.45599365234375,13.644444444444444,-22.79072039072039,65.37338217338217,-0.224609375,1.99462890625,0.08544921875,-5.60760498046875,11.71112060546875,-2.655029296875,-38.98412698412698,-108.1059829059829,1.1995115995115995,0.10498046875,1.52294921875,-1.333984375,-0.2899169921875,1.42669677734375,0.55694580078125,-97.16043956043956,-18.142612942612942,-23.84029304029304
51:57.355,0.892578125,1.16845703125,1.52734375,0.8544921875,6.56890869140625,0.67901611328125,19.49206349206349,-19.791941391941393,60.425396825396824,-0.25537109375,2.04052734375,0.17578125,-9.04083251953125,-5.42449951171875,4.05120849609375,-40.18363858363858,-108.55579975579975,0.5997557997557997,0.1083984375,1.515625,-1.3193359375,-1.96075439453125,-0.4425048828125,3.27301025390625,-97.16043956043956,-18.142612942612942,-23.84029304029304
51:58.134,0.80029296875,0.74560546875,1.78271484375,-4.6844482421875,-1.45721435546875,15.7012939453125,18.29255189255189,-16.043467643467643,63.724053724053725,-0.31884765625,1.990234375,0.1572265625,-2.25067138671875,-12.74871826171875,-3.25775146484375,-38.68424908424908,-109.9052503052503,1.1995115995115995,0.10986328125,1.52490234375,-1.31005859375,-2.51007080078125,0.152587890625,2.92205810546875,-94.91135531135531,-17.39291819291819,-23.84029304029304
51:58.914,0.80029296875,0.74560546875,1.78271484375,10.96343994140625,4.4097900390625,38.29193115234375,15.293772893772893,-18.44249084249084,61.47496947496947,-0.38525390625,1.95849609375,0.01220703125,0.75531005859375,-3.0364990234375,-3.6163330078125,-40.18363858363858,-109.75531135531135,2.0991452991452992,0.12353515625,1.51123046875,-1.31640625,-3.1890869140625,-0.86212158203125,3.570556640625,-96.7106227106227,-18.59242979242979,-24.14017094017094
51:59.794,0.814453125,0.8017578125,1.78271484375,10.96343994140625,4.4097900390625,38.29193115234375,12.594871794871795,-17.54285714285714,61.624908424908426,-0.50390625,1.96533203125,-0.04443359375,-1.1749267578125,-6.7596435546875,2.06756591796875,-39.13406593406593,-106.75653235653235,0.0,0.10498046875,1.5048828125,-1.31005859375,-0.09918212890625,0.99945068359375,1.02996826171875,-96.1108669108669,-16.793162393162394,-22.79072039072039
52:00.670,0.96044921875,0.17138671875,1.82275390625,-4.9591064453125,-3.31878662109375,13.1683349609375,0.14993894993894993,-20.841514041514042,56.676923076923075,-0.3701171875,1.982421875,0.08935546875,-8.575439453125,-10.65826416015625,9.70458984375,-40.033699633699634,-104.807326007326,-1.3494505494505493,0.1220703125,1.5166015625,-1.291015625,-1.953125,1.76239013671875,3.8604736328125,-96.1108669108669,-16.793162393162394,-25.93943833943834
52:01.693,0.86669921875,0.5810546875,1.81298828125,-6.65283203125,-2.9296875,5.88226318359375,0.14993894993894993,-20.841514041514042,56.676923076923075,-0.3701171875,1.982421875,0.08935546875,3.9215087890625,-2.11334228515625,5.3558349609375,-40.18363858363858,-108.25592185592186,-1.1995115995115995,0.1220703125,1.5166015625,-1.291015625,-0.3814697265625,0.946044921875,1.9683837890625,-95.36117216117216,-16.793162393162394,-24.14017094017094
52:02.473,0.357421875,-0.50927734375,2.18115234375,-8.4686279296875,-2.86865234375,-2.23541259765625,8.846398046398047,-25.489621489621488,63.12429792429792,-0.29736328125,2.04638671875,0.0830078125,3.9215087890625,-2.11334228515625,5.3558349609375,-40.18363858363858,-108.25592185592186,-1.1995115995115995,0.115234375,1.51513671875,-1.3037109375,-0.3814697265625,0.946044921875,1.9683837890625,-95.36117216117216,-16.793162393162394,-24.14017094017094
52:03.253,0.52001953125,-0.1708984375,2.0693359375,4.3792724609375,3.41796875,-0.1983642578125,4.1982905982905985,-27.13894993894994,61.624908424908426,-0.33984375,2.05712890625,0.09912109375,-2.89154052734375,-12.01629638671875,-5.5389404296875,-40.63345543345543,-108.25592185592186,-1.4993894993894994,0.11865234375,1.52001953125,-1.31103515625,-0.1678466796875,0.38909912109375,1.6937255859375,-95.810989010989,-17.242979242979242,-22.94065934065934
52:04.033,0.81494140625,0.52587890625,1.845703125,-17.17376708984375,-5.523681640625,-29.57916259765625,9.746031746031745,-24.589987789987788,66.12307692307692,-0.458984375,2.02197265625,-0.095703125,-10.85662841796875,21.2249755859375,5.706787109375,-41.832967032967034,-108.4058608058608,-0.8996336996336995,0.09375,1.51708984375,-1.32421875,-0.518798828125,3.021240234375,-1.01470947265625,-96.4107448107448,-17.39291819291819,-20.69157509157509
52:04.813,0.81494140625,0.52587890625,1.845703125,-17.17376708984375,-5.523681640625,-29.57916259765625,12.145054945054945,-12.294993894993894,58.326251526251525,-0.37158203125,1.95458984375,0.029296875,-5.19561767578125,0.02288818359375,-0.38909912109375,-41.533089133089135,-106.15677655677655,-1.6493284493284492,0.09130859375,1.51513671875,-1.31591796875,-1.18255615234375,0.78582763671875,1.94549560546875,-95.66105006105006,-16.343345543345542,-24.88986568986569
52:05.593,0.85986328125,0.7734375,1.775390625,0.244140625,-2.8533935546875,13.8397216796875,12.145054945054945,-12.294993894993894,58.326251526251525,-0.37158203125,1.95458984375,0.029296875,-5.19561767578125,0.02288818359375,-0.38909912109375,-39.583882783882785,-107.5062271062271,-0.7496947496947497,0.09130859375,1.51513671875,-1.31591796875,-1.18255615234375,0.78582763671875,1.94549560546875,-95.66105006105006,-16.793162393162394,-24.14017094017094
52:06.375,0.7802734375,0.728515625,1.78271484375,1.71661376953125,4.913330078125,7.75909423828125,17.54285714285714,-18.29255189255189,62.67448107448107,-0.35498046875,2.01025390625,0.04052734375,-2.960205078125,-0.030517578125,-3.54766845703125,-39.583882783882785,-107.5062271062271,-0.7496947496947497,0.11865234375,1.5126953125,-1.306640625,-1.9683837890625,0.14495849609375,2.20489501953125,-95.66105006105006,-16.793162393162394,-24.14017094017094
52:07.155,0.689453125,0.2041015625,1.9560546875,0.89263916015625,1.22833251953125,28.12957763671875,13.494505494505495,-21.29133089133089,60.72527472527472,-0.36083984375,1.9892578125,0.08349609375,6.439208984375,-6.70623779296875,2.12860107421875,-38.68424908424908,-107.35628815628816,0.14993894993894993,0.0966796875,1.50927734375,-1.306640625,0.213623046875,1.1749267578125,0.58746337890625,-95.5111111111111,-16.49328449328449,-23.690354090354088
52:07.933,0.689453125,0.2041015625,1.9560546875,1.59454345703125,1.30462646484375,3.753662109375,8.696459096459096,-18.892307692307693,62.37460317460317,-0.33154296875,1.99560546875,0.00537109375,11.22283935546875,-10.12420654296875,5.05828857421875,-41.38315018315018,-105.70695970695971,-0.7496947496947497,0.09375,1.5078125,-1.31494140625,1.068115234375,0.84686279296875,0.77056884765625,-98.809768009768,-16.943101343101343,-23.99023199023199
52:08.762,0.3369140625,-0.4033203125,2.20166015625,1.59454345703125,1.30462646484375,3.753662109375,8.696459096459096,-18.892307692307693,62.37460317460317,-0.31884765625,1.99609375,0.02783203125,2.5634765625,-2.716064453125,-0.8392333984375,-40.93333333333333,-107.5062271062271,-2.848840048840049,0.10205078125,1.5166015625,-1.31640625,0.3814697265625,0.51116943359375,1.3885498046875,-96.26080586080586,-15.143833943833943,-24.739926739926737
52:09.542,0.88525390625,0.09765625,1.94189453125,2.69317626953125,-9.918212890625,13.32855224609375,7.646886446886446,-21.44126984126984,63.27423687423687,-0.31884765625,1.99609375,0.02783203125,2.5634765625,-2.716064453125,-0.8392333984375,-41.683028083028084,-108.55579975579975,-3.2986568986568985,0.10205078125,1.5166015625,-1.31640625,0.3814697265625,0.51116943359375,1.3885498046875,-97.46031746031746,-17.093040293040293,-25.18974358974359
52:10.322,0.7451171875,-0.13037109375,1.91015625,0.18310546875,14.03045654296875,5.8441162109375,7.197069597069596,-20.54163614163614,62.074725274725274,-0.30908203125,2.01806640625,-0.00048828125,-0.66375732421875,-4.6234130859375,1.77001953125,-41.683028083028084,-108.55579975579975,-3.2986568986568985,0.09765625,1.50390625,-1.3212890625,-1.0528564453125,-0.05340576171875,2.64739990234375,-97.46031746031746,-17.093040293040293,-25.18974358974359
52:11.151,0.73095703125,0.158203125,1.955078125,-5.40924072265625,0.1068115234375,1.30462646484375,5.697680097680098,-22.34090354090354,63.12429792429792,-0.388671875,2.02734375,-0.0478515625,-3.4942626953125,-2.09808349609375,-0.66375732421875,-40.63345543345543,-108.25592185592186,-2.848840048840049,0.09228515625,1.509765625,-1.3310546875,0.02288818359375,1.77001953125,0.8087158203125,-95.810989010989,-15.893528693528692,-24.739926739926737
52:11.931,0.73095703125,0.158203125,1.955078125,-8.49151611328125,-2.23541259765625,-25.421142578125,7.496947496947497,-20.841514041514042,59.07594627594627,-0.361328125,1.99853515625,0.0068359375,-4.08172607421875,9.857177734375,3.65447998046875,-40.18363858363858,-106.75653235653235,-3.2986568986568985,0.08154296875,1.5029296875,-1.333984375,1.0223388671875,2.54058837890625,-0.63323974609375,-96.7106227106227,-15.293772893772893,-24.44004884004884
52:12.711,0.7431640625,0.3349609375,1.95703125,-8.49151611328125,-2.23541259765625,-25.421142578125,7.496947496947497,-20.841514041514042,59.07594627594627,-0.27880859375,2.03173828125,0.03759765625,-12.84027099609375,4.1046142578125,2.18963623046875,-40.48351648351648,-108.85567765567765,-0.8996336996336995,0.08349609375,1.501953125,-1.330078125,-1.5411376953125,1.0833740234375,1.4190673828125,-96.7106227106227,-15.593650793650793,-25.18974358974359
52:13.554,0.99072265625,1.35302734375,1.5498046875,7.843017578125,5.07354736328125,-9.36126708984375,13.194627594627594,-14.544078144078144,61.17509157509157,-0.27880859375,2.03173828125,0.03759765625,-12.84027099609375,4.1046142578125,2.18963623046875,-39.733821733821735,-108.4058608058608,-0.5997557997557997,0.08349609375,1.501953125,-1.330078125,-1.5411376953125,1.0833740234375,1.4190673828125,-96.7106227106227,-16.043467643467643,-24.88986568986569
52:14.320,0.80322265625,0.654296875,1.7890625,3.0975341796875,3.7078857421875,28.3966064453125,18.742368742368743,-11.245421245421245,63.42417582417582,-0.2919921875,2.0078125,0.11328125,0.51116943359375,-3.39508056640625,-0.66375732421875,-39.733821733821735,-108.4058608058608,-0.5997557997557997,0.08203125,1.5107421875,-1.31884765625,-0.8544921875,0.23651123046875,2.01416015625,-96.7106227106227,-16.043467643467643,-24.88986568986569
52:15.100,0.6494140625,0.216796875,1.99169921875,-3.2501220703125,0.3204345703125,13.17596435546875,14.394139194139193,-17.842735042735043,64.02393162393162,-0.30810546875,2.00439453125,0.1240234375,3.4332275390625,-6.7291259765625,2.5177001953125,-39.883760683760684,-109.75531135531135,2.399023199023199,0.08984375,1.5,-1.3037109375,0.72479248046875,2.66265869140625,-0.2899169921875,-97.61025641025641,-15.143833943833943,-23.99023199023199
52:15.880,0.6494140625,0.216796875,1.99169921875,2.4566650390625,4.058837890625,-13.16070556640625,12.294993894993894,-19.64200244200244,68.07228327228327,-0.28857421875,1.99462890625,0.1201171875,-8.544921875,5.6610107421875,0.54931640625,-41.832967032967034,-108.85567765567765,0.7496947496947497,0.0849609375,1.51904296875,-1.3212890625,-1.190185546875,0.7171630859375,2.00653076171875,-97.01050061050061,-16.193406593406593,-24.739926739926737
52:16.660,0.90625,1.0126953125,1.6708984375,2.4566650390625,4.058837890625,-13.16070556640625,12.294993894993894,-19.64200244200244,68.07228327228327,-0.28857421875,1.99462890625,0.1201171875,2.47955322265625,-13.38958740234375,-1.983642578125,-40.93333333333333,-109.75531135531135,1.3494505494505493,0.0849609375,1.51904296875,-1.3212890625,-1.48773193359375,0.79345703125,1.91497802734375,-97.16043956043956,-15.593650793650793,-25.18974358974359
52:17.488,0.92578125,1.03662109375,1.64794921875,4.7760009765625,6.21795654296875,33.172607421875,15.143833943833943,-18.59242979242979,62.37460317460317,-0.32275390625,1.9619140625,0.13623046875,2.47955322265625,-13.38958740234375,-1.983642578125,-40.93333333333333,-109.75531135531135,1.3494505494505493,0.083984375,1.51416015625,-1.30517578125,-1.48773193359375,0.79345703125,1.91497802734375,-97.16043956043956,-15.593650793650793,-25.18974358974359
52:18.268,0.81787109375,0.8515625,1.76611328125,1.74713134765625,-6.21795654296875,15.78521728515625,17.842735042735043,-16.793162393162394,64.02393162393162,-0.23583984375,2.0078125,0.10107421875,-0.946044921875,-1.251220703125,-0.6256103515625,-40.93333333333333,-108.55579975579975,1.3494505494505493,0.0859375,1.5068359375,-1.3154296875,-2.93731689453125,-0.20599365234375,3.47137451171875,-98.35995115995115,-16.193406593406593,-24.739926739926737
52:19.048,0.763671875,0.5283203125,1.82958984375,0.60272216796875,0.96893310546875,0.6103515625,14.544078144078144,-21.59120879120879,67.32258852258852,-0.2626953125,1.99462890625,0.056640625,-0.74005126953125,0.30517578125,1.190185546875,-40.48351648351648,-108.85567765567765,-1.6493284493284492,0.0849609375,1.5078125,-1.3193359375,-0.83160400390625,0.3509521484375,2.43377685546875,-97.01050061050061,-14.694017094017093,-25.03980463980464
52:19.879,0.763671875,0.5283203125,1.82958984375,-0.08392333984375,-0.89263916015625,-4.33349609375,14.244200244200243,-19.791941391941393,64.92356532356533,-0.29150390625,2.0283203125,0.015625,4.29534912109375,-8.18634033203125,0.9307861328125,-40.033699633699634,-109.45543345543345,-0.29987789987789987,0.05810546875,1.51904296875,-1.31787109375,-1.9683837890625,-0.335693359375,3.3721923828125,-97.61025641025641,-15.443711843711844,-25.33968253968254
52:20.657,0.48486328125,-0.20947265625,2.125,-0.08392333984375,-0.89263916015625,-4.33349609375,14.244200244200243,-19.791941391941393,64.92356532356533,-0.29150390625,2.0283203125,0.015625,-0.518798828125,-0.67901611328125,1.86920166015625,-41.38315018315018,-109.0056166056166,-0.4498168498168498,0.05810546875,1.51904296875,-1.31787109375,-1.0223388671875,0.8392333984375,1.57928466796875,-95.5111111111111,-15.893528693528692,-25.03980463980464
52:21.486,0.732421875,0.46728515625,1.84716796875,0.5340576171875,1.38092041015625,9.36126708984375,4.1982905982905985,-22.79072039072039,62.37460317460317,-0.3154296875,2.00146484375,0.029296875,-0.518798828125,-0.67901611328125,1.86920166015625,-41.38315018315018,-109.0056166056166,-0.4498168498168498,0.0751953125,1.50634765625,-1.310546875,-1.0223388671875,0.8392333984375,1.57928466796875,-95.5111111111111,-15.893528693528692,-25.03980463980464
52:22.266,1.03369140625,0.57958984375,1.76416015625,-1.57928466796875,-2.61688232421875,7.4920654296875,12.444932844932845,-20.24175824175824,67.32258852258852,-0.29931640625,1.998046875,0.029296875,-2.899169921875,-5.65338134765625,-2.471923828125,-39.583882783882785,-108.25592185592186,-0.4498168498168498,0.0849609375,1.51220703125,-1.31396484375,-1.8463134765625,0.64849853515625,2.105712890625,-97.61025641025641,-15.443711843711844,-25.33968253968254
52:23.046,0.75439453125,0.42431640625,1.87109375,-2.777099609375,-0.335693359375,-0.3204345703125,14.694017094017093,-19.941880341880342,66.12307692307692,-0.33251953125,2.01416015625,0.03515625,-2.777099609375,0.02288818359375,2.09808349609375,-41.533089133089135,-110.2051282051282,0.14993894993894993,0.0732421875,1.51708984375,-1.32275390625,-1.6937255859375,0.518798828125,2.11334228515625,-97.46031746031746,-16.043467643467643,-23.84029304029304
52:23.826,0.75439453125,0.42431640625,1.87109375,-2.777099609375,-0.335693359375,-0.3204345703125,10.645665445665445,-19.791941391941393,64.92356532356533,-0.3232421875,2.015625,0.09326171875,-2.81524658203125,3.60107421875,2.51007080078125,-40.63345543345543,-107.5062271062271,-0.7496947496947497,0.08837890625,1.5107421875,-1.3271484375,-1.76239013671875,0.49591064453125,2.166748046875,-97.31037851037851,-15.443711843711844,-23.690354090354088
52:24.655,0.7255859375,0.46044921875,1.83349609375,2.8076171875,4.08935546875,5.7830810546875,10.645665445665445,-19.791941391941393,64.92356532356533,-0.3232421875,2.015625,0.09326171875,9.22393798828125,-8.88824462890625,1.53350830078125,-40.18363858363858,-107.806105006105,-1.1995115995115995,0.0654296875,1.513671875,-1.31103515625,-0.23651123046875,0.70953369140625,1.54876708984375,-97.46031746031746,-14.843956043956043,-24.14017094017094
52:25.532,0.357421875,-0.55419921875,2.18017578125,1.1444091796875,0.81634521484375,-1.07574462890625,7.496947496947497,-24.14017094017094,62.52454212454212,-0.30810546875,2.04248046875,-0.03076171875,9.22393798828125,-8.88824462890625,1.53350830078125,-41.533089133089135,-108.1059829059829,-1.3494505494505493,0.0654296875,1.513671875,-1.31103515625,-0.23651123046875,0.70953369140625,1.54876708984375,-97.31037851037851,-14.394139194139193,-24.739926739926737
52:26.363,0.66943359375,0.13623046875,1.998046875,-11.1236572265625,4.64630126953125,-41.34368896484375,4.1982905982905985,-24.29010989010989,64.32380952380952,-0.2275390625,1.986328125,-0.01123046875,-9.98687744140625,7.781982421875,0.22125244140625,-41.533089133089135,-108.1059829059829,-1.3494505494505493,0.0546875,1.51904296875,-1.32177734375,0.12969970703125,0.274658203125,1.70135498046875,-97.31037851037851,-14.394139194139193,-24.739926739926737
52:27.141,0.978515625,1.212890625,1.609375,1.54876708984375,5.62286376953125,-10.10894775390625,12.145054945054945,-23.690354090354088,65.52332112332113,-0.28369140625,1.99658203125,0.12939453125,-13.5498046875,5.340576171875,3.04412841796875,-41.38315018315018,-109.75531135531135,-0.7496947496947497,0.0732421875,1.50927734375,-1.3291015625,-1.40380859375,1.33514404296875,1.35040283203125,-99.7094017094017,-16.043467643467643,-24.88986568986569
52:27.921,0.978515625,1.212890625,1.609375,1.53350830078125,-2.6397705078125,15.0146484375,14.244200244200243,-19.49206349206349,63.873992673992674,-0.23681640625,1.98681640625,0.11474609375,-1.25885009765625,-8.72802734375,0.26702880859375,-40.48351648351648,-109.15555555555555,1.1995115995115995,0.07373046875,1.509765625,-1.2998046875,-3.45611572265625,-0.457763671875,3.36456298828125,-96.7106227106227,-14.843956043956043,-26.23931623931624
52:28.701,0.9326171875,0.71826171875,1.85107421875,1.53350830078125,-2.6397705078125,15.0146484375,14.244200244200243,-19.49206349206349,63.873992673992674,-0.23681640625,1.98681640625,0.11474609375,-2.288818359375,3.021240234375,0.885009765625,-41.08327228327228,-109.15555555555555,0.7496947496947497,0.07373046875,1.509765625,-1.2998046875,-1.52587890625,1.27410888671875,1.41143798828125,-99.1096459096459,-15.443711843711844,-23.24053724053724
52:29.481,0.80615234375,0.38623046875,1.89111328125,-0.5340576171875,-0.9307861328125,-0.4425048828125,12.594871794871795,-21.14139194139194,65.37338217338217,-0.2294921875,2.0146484375,0.02197265625,-2.288818359375,3.021240234375,0.885009765625,-41.08327228327228,-109.15555555555555,0.7496947496947497,0.07177734375,1.5048828125,-1.3291015625,-1.52587890625,1.27410888671875,1.41143798828125,-98.50989010989011,-13.794383394383393,-24.88986568986569
52:30.310,0.80712890625,0.384765625,1.89404296875,-2.288818359375,0.6866455078125,-0.67138671875,14.244200244200243,-18.44249084249084,67.62246642246642,-0.25048828125,2.0068359375,0.068359375,-2.5634765625,-0.2593994140625,0.45013427734375,-40.78339438339438,-110.95482295482294,0.14993894993894993,0.0654296875,1.51220703125,-1.32470703125,-1.068115234375,0.946044921875,1.62506103515625,-98.50989010989011,-13.794383394383393,-24.88986568986569
52:31.187,0.865234375,0.45068359375,1.80517578125,4.41741943359375,-0.030517578125,9.20867919921875,14.244200244200243,-17.692796092796094,67.62246642246642,-0.32958984375,1.98876953125,0.037109375,1.251220703125,-4.52423095703125,-1.068115234375,-39.28400488400488,-109.9052503052503,-2.998778998778999,0.083984375,1.5029296875,-1.32373046875,-1.5106201171875,0.79345703125,2.1209716796875,-97.61025641025641,-14.694017094017093,-23.690354090354088
52:31.967,0.30419921875,-0.126953125,2.107421875,3.74603271484375,17.58575439453125,12.87078857421875,8.396581196581197,-22.49084249084249,64.62368742368741,-0.32470703125,2.0107421875,0.0654296875,-1.556396484375,-2.95257568359375,1.89971923828125,-39.733821733821735,-108.4058608058608,-0.29987789987789987,0.05615234375,1.48828125,-1.34326171875,1.52587890625,1.3275146484375,3.2196044921875,-97.46031746031746,-15.293772893772893,-24.88986568986569
52:32.749,0.30419921875,-0.126953125,2.107421875,3.74603271484375,17.58575439453125,12.87078857421875,8.396581196581197,-22.49084249084249,64.62368742368741,-0.2939453125,2.013671875,0.201171875,-3.01361083984375,-4.85992431640625,8.99505615234375,-39.28400488400488,-108.1059829059829,0.4498168498168498,0.52490234375,1.83056640625,-0.19287109375,-30.2276611328125,29.6478271484375,0.9918212890625,-95.5111111111111,-15.443711843711844,-24.29010989010989
52:33.527,0.71435546875,0.17578125,2.052734375,5.706787109375,15.5792236328125,6.27899169921875,4.648107448107448,-22.64078144078144,63.873992673992674,-0.2939453125,2.013671875,0.201171875,-3.01361083984375,-4.85992431640625,8.99505615234375,-41.08327228327228,-109.15555555555555,2.249084249084249,0.52490234375,1.83056640625,-0.19287109375,-3.36456298828125,1.76239013671875,-3.60107421875,-55.32747252747252,-6.597313797313797,73.17020757020757
52:34.405,0.65234375,0.265625,1.91064453125,-11.80267333984375,-1.9989013671875,-9.1400146484375,8.546520146520146,-23.09059829059829,68.67203907203907,-0.1416015625,1.978515625,0.38232421875,4.98199462890625,-0.92315673828125,-6.27899169921875,-41.08327228327228,-109.15555555555555,2.249084249084249,0.443359375,2.01513671875,0.2568359375,-3.36456298828125,1.76239013671875,-3.60107421875,-55.32747252747252,-6.597313797313797,73.17020757020757
52:35.185,0.57470703125,0.07861328125,2.001953125,2.52532958984375,-1.41143798828125,-2.51007080078125,12.294993894993894,-21.44126984126984,70.77118437118438,-0.3623046875,2.02001953125,-0.0166015625,3.7078857421875,-9.4757080078125,0.78582763671875,-40.63345543345543,-110.05518925518925,5.547741147741148,0.39453125,2.01953125,0.2802734375,-0.32806396484375,0.34332275390625,1.3427734375,-57.27667887667887,-3.8984126984126983,74.81953601953602
52:35.965,1.02294921875,0.17724609375,1.89111328125,-5.22613525390625,-4.1046142578125,17.059326171875,3.7484737484737485,-22.79072039072039,62.67448107448107,-0.29296875,2.0166015625,-0.02099609375,1.47247314453125,-9.521484375,1.52587890625,-40.78339438339438,-106.6065934065934,-2.6989010989010986,0.39697265625,2.033203125,0.26806640625,-0.42724609375,0.8544921875,1.28173828125,-56.526984126984125,-0.29987789987789987,76.61880341880341
52:36.745,1.02294921875,0.17724609375,1.89111328125,-5.22613525390625,-4.1046142578125,17.059326171875,4.798046398046398,-22.19096459096459,65.67326007326007,-0.29150390625,2.02880859375,0.0283203125,-1.9073486328125,0.7781982421875,1.13677978515625,-41.38315018315018,-109.30549450549451,-2.548962148962149,0.3974609375,2.02099609375,0.263671875,-0.29754638671875,0.89263916015625,1.99127197265625,-56.526984126984125,-2.399023199023199,76.91868131868132
52:37.622,0.54052734375,0.03173828125,2.02978515625,-3.33404541015625,0.5950927734375,-5.79071044921875,4.798046398046398,-22.19096459096459,65.67326007326007,-0.29150390625,2.02880859375,0.0283203125,-1.9073486328125,0.7781982421875,1.13677978515625,-41.533089133089135,-107.35628815628816,-2.399023199023199,0.3974609375,2.02099609375,0.263671875,-0.29754638671875,0.89263916015625,1.99127197265625,-55.47741147741147,0.14993894993894993,76.16898656898657
52:38.402,0.61083984375,0.18505859375,2.00439453125,0.0457763671875,6.8206787109375,-0.23651123046875,7.347008547008547,-22.49084249084249,65.37338217338217,-0.3125,2.03857421875,0.0068359375,-9.0484619140625,2.410888671875,-0.6561279296875,-41.533089133089135,-107.35628815628816,-2.399023199023199,0.39697265625,2.03125,0.26611328125,-0.6561279296875,0.69427490234375,1.953125,-55.47741147741147,0.14993894993894993,76.16898656898657
52:39.184,0.59326171875,0.18701171875,1.9501953125,-3.41796875,6.744384765625,-5.83648681640625,7.646886446886446,-22.79072039072039,65.67326007326007,-0.33544921875,1.9970703125,0.04736328125,-7.537841796875,-3.082275390625,-0.5645751953125,-42.43272283272283,-108.55579975579975,-1.799267399267399,0.3916015625,2.025390625,0.27978515625,-0.35858154296875,1.16729736328125,2.00653076171875,-55.62735042735043,-0.4498168498168498,77.81831501831502
52:39.962,0.59326171875,0.18701171875,1.9501953125,-2.38037109375,6.256103515625,-10.03265380859375,7.347008547008547,-21.44126984126984,63.27423687423687,-0.3232421875,1.9970703125,0.052734375,-9.2315673828125,7.171630859375,1.52587890625,-41.533089133089135,-107.65616605616606,0.14993894993894993,0.40283203125,2.02099609375,0.27099609375,0.00762939453125,1.04522705078125,1.73187255859375,-57.72649572649573,-0.7496947496947497,77.06862026862026
52:40.791,0.71240234375,0.2158203125,1.99169921875,-2.38037109375,6.256103515625,-10.03265380859375,7.496947496947497,-21.29133089133089,65.82319902319902,-0.3388671875,1.9873046875,0.02294921875,1.24359130859375,2.81524658203125,1.0528564453125,-43.03247863247863,-109.15555555555555,-0.5997557997557997,0.4033203125,2.02001953125,0.265625,0.48065185546875,0.81634521484375,1.64031982421875,-55.027594627594624,0.8996336996336995,76.91868131868132
52:41.571,0.7294921875,0.34423828125,1.900390625,-0.91552734375,3.79180908203125,4.6844482421875,7.496947496947497,-21.29133089133089,65.82319902319902,-0.3388671875,1.9873046875,0.02294921875,1.24359130859375,2.81524658203125,1.0528564453125,-42.13284493284493,-107.2063492063492,-1.799267399267399,0.4033203125,2.02001953125,0.265625,0.48065185546875,0.81634521484375,1.64031982421875,-56.377045177045176,0.5997557997557997,76.01904761904761
52:42.448,0.9052734375,0.2392578125,1.95361328125,-4.8065185546875,-1.46484375,15.0909423828125,5.847619047619047,-22.79072039072039,67.77240537240537,-0.32861328125,1.9951171875,-0.11669921875,0.87738037109375,-3.15093994140625,4.39453125,-42.13284493284493,-107.2063492063492,-1.799267399267399,0.392578125,2.02783203125,0.265625,-0.54931640625,0.41961669921875,1.85394287109375,-56.377045177045176,0.5997557997557997,76.01904761904761
52:43.229,0.7646484375,0.099609375,1.9228515625,-0.4425048828125,11.41357421875,6.6070556640625,3.598534798534798,-23.39047619047619,61.774847374847376,-0.314453125,1.9931640625,-0.06982421875,-4.3487548828125,-2.5482177734375,1.42669677734375,-40.48351648351648,-108.4058608058608,-4.498168498168498,0.400390625,2.02734375,0.265625,-0.54931640625,0.8392333984375,1.8463134765625,-56.676923076923075,0.29987789987789987,76.76874236874237
52:44.008,0.58447265625,0.140625,2.0361328125,-0.02288818359375,4.364013671875,6.35528564453125,4.048351648351648,-24.44004884004884,63.12429792429792,-0.34765625,2.02783203125,-0.0390625,-1.6021728515625,2.3956298828125,1.251220703125,-40.78339438339438,-109.15555555555555,-4.798046398046398,0.3974609375,2.02392578125,0.2705078125,-1.1444091796875,0.25177001953125,2.25830078125,-56.377045177045176,0.0,74.96947496947497
52:44.788,0.58447265625,0.140625,2.0361328125,-0.02288818359375,4.364013671875,6.35528564453125,4.1982905982905985,-23.99023199023199,63.724053724053725,-0.33447265625,2.02392578125,-0.0576171875,-3.753662109375,2.90679931640625,1.01470947265625,-40.78339438339438,-106.9064713064713,-2.399023199023199,0.40576171875,2.025390625,0.267578125,-1.007080078125,0.5645751953125,2.01416015625,-56.676923076923075,0.29987789987789987,77.36849816849816
52:45.570,0.57958984375,0.0888671875,2.0693359375,-4.84466552734375,0.64849853515625,3.3721923828125,4.1982905982905985,-23.99023199023199,63.724053724053725,-0.33447265625,2.02392578125,-0.0576171875,-3.753662109375,2.90679931640625,1.01470947265625,-40.033699633699634,-109.45543345543345,-4.048351648351648,0.40576171875,2.025390625,0.267578125,-1.007080078125,0.5645751953125,2.01416015625,-56.676923076923075,0.29987789987789987,76.76874236874237
52:46.397,0.5751953125,0.20849609375,1.99560546875,-6.40106201171875,3.90625,1.4190673828125,4.648107448107448,-24.14017094017094,64.17387057387057,-0.3642578125,2.02880859375,-0.04345703125,-5.3253173828125,3.9520263671875,3.23486328125,-40.033699633699634,-109.45543345543345,-4.048351648351648,0.4033203125,2.025390625,0.2666015625,-1.02996826171875,0.46539306640625,2.26593017578125,-56.676923076923075,0.29987789987789987,76.76874236874237
52:47.177,0.61328125,0.13671875,2.00439453125,-3.37982177734375,3.12042236328125,0.274658203125,4.798046398046398,-21.14139194139194,65.37338217338217,-0.31494140625,2.04638671875,-0.06982421875,-6.98089599609375,8.056640625,2.34222412109375,-41.832967032967034,-107.65616605616606,-4.498168498168498,0.40380859375,2.0205078125,0.2587890625,-0.75531005859375,0.6561279296875,2.1209716796875,-57.12673992673992,0.29987789987789987,78.41807081807082
52:48.006,0.6123046875,0.166015625,1.931640625,1.7852783203125,5.889892578125,3.24249267578125,7.047130647130647,-22.79072039072039,66.72283272283272,-0.3134765625,2.01806640625,-0.0107421875,-6.64520263671875,3.8909912109375,-0.30517578125,-39.733821733821735,-108.85567765567765,-3.4485958485958483,0.404296875,2.017578125,0.2646484375,-0.84686279296875,0.732421875,1.71661376953125,-57.12673992673992,-1.4993894993894994,77.36849816849816
52:48.786,0.6123046875,0.166015625,1.931640625,1.7852783203125,5.889892578125,3.24249267578125,6.597313797313797,-22.79072039072039,67.47252747252747,-0.32568359375,1.9970703125,0.0009765625,-8.0413818359375,6.2103271484375,0.99945068359375,-40.18363858363858,-109.0056166056166,-3.598534798534798,0.40283203125,2.029296875,0.26904296875,-0.64849853515625,0.86212158203125,1.6937255859375,-55.027594627594624,-1.0495726495726496,74.51965811965812
52:49.566,0.70263671875,0.33251953125,1.9443359375,-2.5177001953125,3.71551513671875,-2.8228759765625,6.597313797313797,-22.79072039072039,67.47252747252747,-0.32568359375,1.9970703125,0.0009765625,-8.0413818359375,6.2103271484375,0.99945068359375,-40.48351648351648,-108.1059829059829,-1.3494505494505493,0.40283203125,2.029296875,0.26904296875,-0.64849853515625,0.86212158203125,1.6937255859375,-55.77728937728938,0.14993894993894993,77.96825396825396
52:50.346,0.62451171875,0.205078125,2.00927734375,-4.425048828125,5.89752197265625,2.2430419921875,9.746031746031745,-20.69157509157509,66.72283272283272,-0.3486328125,2.0,-0.00634765625,-5.706787109375,2.8839111328125,0.7476806640625,-40.48351648351648,-108.1059829059829,-1.3494505494505493,0.40478515625,2.0341796875,0.2587890625,-0.75531005859375,0.93841552734375,1.70135498046875,-55.77728937728938,0.14993894993894993,77.96825396825396
52:51.126,0.689453125,0.14306640625,2.02880859375,-1.6937255859375,10.94818115234375,2.32696533203125,5.847619047619047,-21.44126984126984,66.72283272283272,-0.29931640625,2.0205078125,-0.02001953125,-4.95147705078125,2.26593017578125,0.34332275390625,-40.93333333333333,-108.55579975579975,-3.598534798534798,0.39208984375,2.0341796875,0.27197265625,-0.78582763671875,0.6866455078125,1.8157958984375,-57.57655677655677,-0.29987789987789987,76.91868131868132
52:51.906,0.689453125,0.14306640625,2.02880859375,-0.67901611328125,4.8370361328125,6.64520263671875,7.197069597069596,-23.09059829059829,65.22344322344323,-0.31982421875,2.017578125,0.00537109375,-5.2642822265625,5.1422119140625,2.5177001953125,-40.63345543345543,-109.0056166056166,-2.548962148962149,0.3994140625,2.02783203125,0.26904296875,-0.81634521484375,0.58746337890625,1.861572265625,-58.77606837606837,-0.29987789987789987,76.91868131868132
52:52.735,0.64404296875,0.140625,1.97802734375,-0.67901611328125,4.8370361328125,6.64520263671875,8.846398046398047,-21.59120879120879,67.92234432234432,-0.2705078125,2.02734375,0.0107421875,-3.85284423828125,-2.25830078125,1.50299072265625,-40.78339438339438,-108.4058608058608,-3.7484737484737485,0.40234375,2.02099609375,0.2705078125,-0.81634521484375,0.69427490234375,2.38800048828125,-57.57655677655677,-0.5997557997557997,76.91868131868132
52:53.563,0.626953125,0.04833984375,1.947265625,4.03594970703125,8.44573974609375,12.67242431640625,8.846398046398047,-21.59120879120879,67.92234432234432,-0.2705078125,2.02734375,0.0107421875,-3.85284423828125,-2.25830078125,1.50299072265625,-40.033699633699634,-108.85567765567765,-3.7484737484737485,0.40234375,2.02099609375,0.2705078125,-0.81634521484375,0.69427490234375,2.38800048828125,-55.47741147741147,0.14993894993894993,77.21855921855922
52:54.344,0.48193359375,0.15869140625,1.892578125,0.14495849609375,4.35638427734375,7.66754150390625,8.396581196581197,-22.49084249084249,67.47252747252747,-0.30615234375,2.013671875,-0.009765625,-2.49481201171875,4.09698486328125,1.71661376953125,-40.033699633699634,-108.85567765567765,-3.7484737484737485,0.40283203125,2.0263671875,0.2724609375,-0.9307861328125,0.7476806640625,1.800537109375,-55.47741147741147,0.14993894993894993,77.21855921855922
52:55.123,0.48779296875,-0.16552734375,2.0556640625,-1.44195556640625,1.64031982421875,-1.64031982421875,6.747252747252747,-21.29133089133089,67.92234432234432,-0.29150390625,2.00830078125,-0.04638671875,0.84686279296875,-6.103515625,1.45721435546875,-41.38315018315018,-109.75531135531135,-3.2986568986568985,0.3984375,2.02685546875,0.265625,-0.5950927734375,0.732421875,1.83868408203125,-57.27667887667887,0.8996336996336995,76.91868131868132
52:56.001,0.50146484375,0.03173828125,2.03271484375,1.16729736328125,-0.54168701171875,-6.53839111328125,5.547741147741148,-22.19096459096459,67.02271062271062,-0.29443359375,2.013671875,-0.0048828125,2.5787353515625,-6.62994384765625,0.38909912109375,-42.13284493284493,-108.25592185592186,-3.598534798534798,0.3984375,2.02490234375,0.26708984375,-0.701904296875,0.67138671875,1.800537109375,-56.227106227106226,1.1995115995115995,77.96825396825396
52:56.781,0.50146484375,0.03173828125,2.03271484375,1.16729736328125,-0.54168701171875,-6.53839111328125,4.348229548229548,-22.64078144078144,67.92234432234432,-0.345703125,2.00146484375,0.00146484375,6.06536865234375,-11.16943359375,1.48773193359375,-40.93333333333333,-107.806105006105,-3.2986568986568985,0.3994140625,2.03125,0.27197265625,-0.67901611328125,0.90789794921875,1.54876708984375,-56.826862026862024,0.14993894993894993,76.91868131868132
52:57.561,0.54150390625,-0.00732421875,2.04150390625,0.213623046875,-0.61798095703125,-4.2877197265625,4.348229548229548,-22.64078144078144,67.92234432234432,-0.345703125,2.00146484375,0.00146484375,6.06536865234375,-11.16943359375,1.48773193359375,-39.883760683760684,-109.30549450549451,-2.249084249084249,0.3994140625,2.03125,0.27197265625,-0.67901611328125,0.90789794921875,1.54876708984375,-55.32747252747252,0.0,77.81831501831502
52:58.390,0.46240234375,-0.14013671875,2.07275390625,-3.19671630859375,0.5035400390625,-2.227783203125,7.496947496947497,-22.34090354090354,66.87277167277168,-0.32470703125,2.00732421875,-0.0234375,4.26483154296875,-6.98089599609375,4.058837890625,-39.883760683760684,-109.30549450549451,-2.249084249084249,0.3974609375,2.03759765625,0.2734375,-0.8087158203125,0.66375732421875,2.0751953125,-55.32747252747252,0.0,77.81831501831502
52:59.170,0.4609375,-0.064453125,2.10498046875,1.556396484375,0.5035400390625,-1.28173828125,6.747252747252747,-23.39047619047619,66.27301587301586,-0.3427734375,2.01220703125,-0.04541015625,4.64630126953125,-8.32366943359375,1.5411376953125,-40.48351648351648,-109.45543345543345,-2.6989010989010986,0.392578125,2.025390625,0.26806640625,-0.51116943359375,1.03759765625,1.800537109375,-55.92722832722833,-0.4498168498168498,78.41807081807082
52:59.950,0.4609375,-0.064453125,2.10498046875,-0.79345703125,-1.02996826171875,-4.95147705078125,6.147496947496947,-22.64078144078144,64.47374847374847,-0.30859375,2.0048828125,-0.01416015625,4.5013427734375,-8.43048095703125,1.71661376953125,-39.583882783882785,-108.25592185592186,-4.348229548229548,0.39990234375,2.0224609375,0.2626953125,-0.90789794921875,0.9765625,1.8768310546875,-55.77728937728938,0.8996336996336995,76.16898656898657
53:00.730,0.63232421875,0.13037109375,2.00341796875,-0.79345703125,-1.02996826171875,-4.95147705078125,7.796825396825397,-23.39047619047619,65.82319902319902,-0.35693359375,2.00146484375,0.0419921875,4.05120849609375,-4.08172607421875,1.6326904296875,-39.28400488400488,-108.4058608058608,-2.399023199023199,0.40234375,2.02392578125,0.26123046875,-1.8463134765625,0.67138671875,2.3193359375,-57.57655677655677,0.14993894993894993,75.56923076923077
53:01.607,0.67822265625,0.32177734375,1.92919921875,1.74713134765625,-1.16729736328125,7.40814208984375,7.796825396825397,-23.39047619047619,65.82319902319902,-0.35693359375,2.00146484375,0.0419921875,4.05120849609375,-4.08172607421875,1.6326904296875,-40.48351648351648,-106.9064713064713,-1.9492063492063492,0.40234375,2.02392578125,0.26123046875,-1.8463134765625,0.67138671875,2.3193359375,-56.227106227106226,-0.5997557997557997,76.91868131868132
53:02.387,0.7275390625,0.4599609375,1.88720703125,1.85394287109375,2.9449462890625,13.5040283203125,7.796825396825397,-20.841514041514042,66.27301587301586,-0.33154296875,1.98828125,0.06494140625,5.28717041015625,-5.9967041015625,-0.518798828125,-40.48351648351648,-106.9064713064713,-1.9492063492063492,0.39111328125,2.021484375,0.255859375,-1.01470947265625,0.86212158203125,2.08282470703125,-56.227106227106226,-0.5997557997557997,76.91868131868132
53:03.216,0.74072265625,0.6337890625,1.845703125,3.0670166015625,4.0740966796875,18.97430419921875,10.495726495726496,-22.19096459096459,67.02271062271062,-0.3505859375,1.97216796875,0.06982421875,5.92803955078125,-6.26373291015625,-1.1138916015625,-40.033699633699634,-108.1059829059829,1.1995115995115995,0.38916015625,2.0322265625,0.26708984375,-1.45721435546875,0.74005126953125,1.861572265625,-57.12673992673992,-0.4498168498168498,76.76874236874237
53:03.996,0.75439453125,0.744140625,1.7978515625,-0.46539306640625,8.7432861328125,17.7459716796875,10.495726495726496,-17.54285714285714,66.42295482295482,-0.37646484375,2.00732421875,0.076171875,-1.33514404296875,-2.4566650390625,-1.2664794921875,-39.28400488400488,-107.35628815628816,0.14993894993894993,0.40087890625,2.02734375,0.26416015625,-1.3885498046875,0.8392333984375,1.495361328125,-57.27667887667887,0.8996336996336995,77.21855921855922
53:04.776,0.75439453125,0.744140625,1.7978515625,-0.46539306640625,8.7432861328125,17.7459716796875,11.245421245421245,-16.49328449328449,66.72283272283272,-0.38037109375,1.982421875,0.107421875,0.2288818359375,-2.70843505859375,-2.44140625,-42.13284493284493,-107.5062271062271,-1.1995115995115995,0.4013671875,2.02734375,0.2568359375,-1.45721435546875,0.83160400390625,1.6021728515625,-57.57655677655677,-0.29987789987789987,77.21855921855922
53:05.605,0.75390625,0.7685546875,1.7646484375,4.79888916015625,7.45391845703125,22.491455078125,11.245421245421245,-16.49328449328449,66.72283272283272,-0.38037109375,1.982421875,0.107421875,0.2288818359375,-2.70843505859375,-2.44140625,-40.93333333333333,-108.55579975579975,0.5997557997557997,0.4013671875,2.02734375,0.2568359375,-1.45721435546875,0.83160400390625,1.6021728515625,-57.57655677655677,0.14993894993894993,77.96825396825396
53:06.385,0.69189453125,0.990234375,1.67431640625,-2.01416015625,2.6397705078125,15.84625244140625,14.694017094017093,-13.944322344322345,65.07350427350427,-0.38818359375,1.95751953125,0.10302734375,-3.70025634765625,1.31988525390625,1.2054443359375,-40.93333333333333,-108.55579975579975,0.5997557997557997,0.4013671875,2.015625,0.26708984375,-1.54876708984375,0.701904296875,2.00653076171875,-57.57655677655677,0.14993894993894993,77.96825396825396
53:07.165,1.009765625,0.75830078125,1.8525390625,-0.84686279296875,0.9765625,1.2359619140625,14.843956043956043,-13.794383394383393,64.92356532356533,-0.36474609375,1.96533203125,0.0556640625,-6.32476806640625,1.64031982421875,-1.068115234375,-40.18363858363858,-107.806105006105,1.6493284493284492,0.39697265625,2.02978515625,0.259765625,-1.36566162109375,0.823974609375,1.861572265625,-56.227106227106226,-0.29987789987789987,78.26813186813186
53:07.945,1.009765625,0.75830078125,1.8525390625,0.48828125,-0.77056884765625,-5.76019287109375,17.242979242979242,-17.093040293040293,64.32380952380952,-0.31591796875,2.0078125,0.00732421875,-7.8887939453125,4.7607421875,0.32806396484375,-40.78339438339438,-108.1059829059829,-0.5997557997557997,0.39306640625,2.029296875,0.259765625,-1.36566162109375,0.90789794921875,1.5869140625,-57.12673992673992,0.5997557997557997,76.31892551892551
53:08.725,0.8251953125,1.05810546875,1.71826171875,0.48828125,-0.77056884765625,-5.76019287109375,17.242979242979242,-17.093040293040293,64.32380952380952,-0.34716796875,2.00048828125,0.0107421875,-12.14599609375,5.30242919921875,2.3651123046875,-39.733821733821735,-106.6065934065934,0.14993894993894993,0.396484375,2.01806640625,0.25439453125,-0.885009765625,0.72479248046875,1.7852783203125,-56.676923076923075,-0.4498168498168498,75.71916971916971
53:09.505,0.80517578125,0.763671875,1.79248046875,-9.8419189453125,-3.28826904296875,-18.951416015625,15.893528693528692,-15.143833943833943,64.92356532356533,-0.34716796875,2.00048828125,0.0107421875,-12.14599609375,5.30242919921875,2.3651123046875,-40.18363858363858,-109.30549450549451,-0.4498168498168498,0.396484375,2.01806640625,0.25439453125,-0.885009765625,0.72479248046875,1.7852783203125,-56.526984126984125,-1.6493284493284492,76.16898656898657
53:10.334,0.765625,0.70654296875,1.8076171875,-3.99017333984375,-2.18963623046875,-20.1416015625,14.244200244200243,-16.943101343101343,65.52332112332113,-0.3349609375,1.99169921875,0.005859375,-9.307861328125,6.99615478515625,2.5634765625,-40.18363858363858,-109.30549450549451,-0.4498168498168498,0.3984375,2.0263671875,0.2578125,-1.220703125,0.90789794921875,1.8310546875,-56.526984126984125,-1.6493284493284492,76.16898656898657
53:11.114,0.765625,0.60400390625,1.83837890625,-5.6915283203125,-0.61798095703125,-16.63970947265625,15.893528693528692,-14.544078144078144,65.22344322344323,-0.3662109375,1.99169921875,0.005859375,-9.82666015625,8.4075927734375,3.08990478515625,-39.883760683760684,-107.2063492063492,-0.7496947496947497,0.4013671875,2.0263671875,0.263671875,-0.72479248046875,0.6866455078125,1.60980224609375,-57.27667887667887,-1.6493284493284492,77.21855921855922
53:11.894,0.765625,0.60400390625,1.83837890625,-8.18634033203125,-1.2359619140625,-16.97540283203125,9.296214896214895,-16.64322344322344,65.22344322344323,-0.3388671875,2.00146484375,-0.0068359375,-10.2386474609375,8.96453857421875,1.2664794921875,-40.63345543345543,-108.25592185592186,-1.799267399267399,0.3955078125,2.0283203125,0.263671875,-0.29754638671875,0.8697509765625,1.64794921875,-57.27667887667887,-0.5997557997557997,77.96825396825396
53:12.723,0.70654296875,0.48095703125,1.8955078125,-8.18634033203125,-1.2359619140625,-16.97540283203125,9.296214896214895,-16.64322344322344,65.22344322344323,-0.357421875,1.9990234375,-0.005859375,-12.02392578125,12.29095458984375,2.899169921875,-41.08327228327228,-108.85567765567765,-3.4485958485958483,0.392578125,2.02734375,0.26416015625,-0.89263916015625,0.8697509765625,1.7852783203125,-56.676923076923075,1.0495726495726496,77.06862026862026
53:13.552,0.7587890625,0.5283203125,1.8759765625,-8.7890625,-1.5869140625,-21.17919921875,9.596092796092796,-16.943101343101343,65.82319902319902,-0.357421875,1.9990234375,-0.005859375,-12.02392578125,12.29095458984375,2.899169921875,-39.583882783882785,-109.0056166056166,-2.548962148962149,0.392578125,2.02734375,0.26416015625,-0.63323974609375,0.9918212890625,1.42669677734375,-57.42661782661782,-0.4498168498168498,77.81831501831502
53:14.429,0.71826171875,0.47314453125,1.8935546875,-8.93402099609375,-1.65557861328125,-16.34979248046875,10.645665445665445,-16.943101343101343,65.82319902319902,-0.3466796875,1.99951171875,0.00537109375,-7.87353515625,7.16400146484375,2.38037109375,-39.583882783882785,-109.0056166056166,-2.548962148962149,0.3935546875,2.0341796875,0.26318359375,-0.63323974609375,0.9918212890625,1.42669677734375,-57.42661782661782,-0.4498168498168498,77.81831501831502
53:15.258,0.6943359375,0.3203125,1.91943359375,-3.73077392578125,-0.9002685546875,-6.56890869140625,10.495726495726496,-18.59242979242979,65.67326007326007,-0.333984375,1.99853515625,0.0224609375,-10.833740234375,5.37872314453125,0.29754638671875,-40.033699633699634,-106.15677655677655,-2.399023199023199,0.3974609375,2.025390625,0.27294921875,-0.946044921875,0.66375732421875,1.708984375,-57.57655677655677,-0.5997557997557997,78.26813186813186
53:16.038,0.56298828125,0.0986328125,2.068359375,4.2724609375,7.75909423828125,6.6375732421875,8.246642246642246,-18.742368742368743,65.22344322344323,-0.3125,2.0419921875,-0.0244140625,-4.43267822265625,4.05120849609375,0.1373291015625,-42.43272283272283,-108.25592185592186,-1.4993894993894994,0.39990234375,2.0263671875,0.26708984375,-0.457763671875,1.0833740234375,1.373291015625,-57.42661782661782,-0.7496947496947497,78.41807081807082
53:16.867,0.56298828125,0.0986328125,2.068359375,-4.4403076171875,0.1983642578125,4.39453125,5.697680097680098,-23.09059829059829,63.873992673992674,-0.28076171875,2.0390625,-0.0224609375,-4.2724609375,0.823974609375,1.94549560546875,-40.033699633699634,-109.15555555555555,-4.048351648351648,0.40185546875,2.02783203125,0.2705078125,-1.0986328125,0.57220458984375,2.26593017578125,-57.72649572649573,0.0,77.06862026862026
53:17.696,0.58056640625,0.01171875,2.080078125,-4.4403076171875,0.1983642578125,4.39453125,5.697680097680098,-23.09059829059829,63.873992673992674,-0.28076171875,2.0390625,-0.0224609375,-7.4462890625,3.33404541015625,-1.1749267578125,-41.08327228327228,-108.1059829059829,-4.048351648351648,0.40185546875,2.02783203125,0.2705078125,-0.213623046875,0.64849853515625,1.983642578125,-56.526984126984125,0.4498168498168498,75.56923076923077
53:18.475,0.607421875,0.14501953125,2.05419921875,-7.32421875,4.5013427734375,0.25177001953125,8.246642246642246,-21.29133089133089,65.22344322344323,-0.2119140625,2.01025390625,0.18115234375,-7.4462890625,3.33404541015625,-1.1749267578125,-41.08327228327228,-108.1059829059829,-4.048351648351648,0.39697265625,2.02783203125,0.26904296875,-0.213623046875,0.64849853515625,1.983642578125,-56.526984126984125,0.4498168498168498,75.56923076923077
53:19.304,0.93994140625,0.09375,1.94189453125,-6.84356689453125,-11.58905029296875,17.4713134765625,6.597313797313797,-24.589987789987788,66.72283272283272,-0.1083984375,2.01806640625,0.17431640625,2.532958984375,-6.3629150390625,1.617431640625,-42.13284493284493,-110.05518925518925,1.3494505494505493,0.412109375,2.02490234375,0.25,-0.43487548828125,1.06048583984375,1.9683837890625,-56.526984126984125,0.4498168498168498,77.96825396825396
53:20.084,0.50732421875,-0.203125,2.10546875,-7.6904296875,-1.5716552734375,-10.36834716796875,8.546520146520146,-25.93943833943834,70.02148962148962,-0.1201171875,2.02490234375,0.18994140625,4.7149658203125,-14.73236083984375,-3.83758544921875,-41.683028083028084,-112.3042735042735,0.29987789987789987,0.4052734375,2.01953125,0.27685546875,-0.12969970703125,0.75531005859375,1.71661376953125,-57.27667887667887,-1.0495726495726496,77.66837606837606
53:20.912,0.50732421875,-0.203125,2.10546875,0.20599365234375,2.22015380859375,23.6663818359375,11.695238095238095,-25.18974358974359,75.11941391941392,-0.12158203125,2.00048828125,0.265625,1.8157958984375,-5.62286376953125,-4.3487548828125,-39.883760683760684,-111.1047619047619,4.1982905982905985,0.412109375,2.02734375,0.2568359375,-1.7242431640625,0.7781982421875,1.71661376953125,-55.027594627594624,2.249084249084249,77.21855921855922
53:21.790,0.73779296875,0.47705078125,1.87158203125,0.20599365234375,2.22015380859375,23.6663818359375,15.143833943833943,-21.44126984126984,73.91990231990232,-0.1796875,1.99658203125,0.32763671875,-2.4871826171875,0.5645751953125,4.52423095703125,-40.63345543345543,-113.05396825396825,5.847619047619047,0.40478515625,2.02685546875,0.26513671875,-1.77764892578125,0.29754638671875,3.2501220703125,-57.42661782661782,0.29987789987789987,77.36849816849816
53:22.570,0.78857421875,0.67236328125,1.806640625,-2.69317626953125,5.74493408203125,12.75634765625,15.143833943833943,-21.44126984126984,73.91990231990232,-0.1796875,1.99658203125,0.32763671875,-2.4871826171875,0.5645751953125,4.52423095703125,-38.98412698412698,-112.15433455433455,2.848840048840049,0.40478515625,2.02685546875,0.26513671875,-1.64031982421875,0.6561279296875,2.14385986328125,-56.526984126984125,0.8996336996336995,77.66837606837606
53:23.545,0.7568359375,0.48486328125,1.87451171875,-6.7901611328125,-0.701904296875,2.5787353515625,16.793162393162394,-19.34212454212454,67.47252747252747,-0.13232421875,1.99609375,0.30615234375,-6.91986083984375,11.63482666015625,2.838134765625,-39.883760683760684,-112.6041514041514,6.597313797313797,0.41943359375,2.02392578125,0.2705078125,-1.64031982421875,0.6561279296875,2.14385986328125,-57.27667887667887,-1.0495726495726496,78.56800976800976
53:24.374,0.78759765625,0.71728515625,1.84033203125,-1.62506103515625,-2.92205810546875,-21.8048095703125,16.793162393162394,-16.043467643467643,66.12307692307692,-0.14794921875,2.0341796875,0.19287109375,-6.40869140625,7.904052734375,4.1046142578125,-39.883760683760684,-112.6041514041514,6.597313797313797,0.41064453125,2.02099609375,0.263671875,-0.79345703125,1.10626220703125,0.99945068359375,-57.27667887667887,-1.0495726495726496,78.56800976800976
53:25.264,0.75634765625,0.42529296875,1.8896484375,1.007080078125,5.523681640625,-16.34979248046875,17.093040293040293,-19.19218559218559,64.92356532356533,-0.15087890625,2.015625,0.18408203125,-7.171630859375,8.11004638671875,3.9215087890625,-41.38315018315018,-110.5050061050061,3.1487179487179486,0.3984375,2.0224609375,0.27734375,-0.091552734375,1.39617919921875,1.09100341796875,-56.377045177045176,1.0495726495726496,76.31892551892551
53:26.031,0.70361328125,0.29052734375,1.94189453125,-8.65936279296875,0.762939453125,-14.129638671875,16.193406593406593,-19.34212454212454,68.82197802197803,-0.1630859375,1.99951171875,0.177734375,-3.60870361328125,6.38580322265625,2.655029296875,-40.93333333333333,-110.5050061050061,2.6989010989010986,0.40771484375,2.01611328125,0.28515625,0.17547607421875,1.27410888671875,0.701904296875,-56.227106227106226,0.4498168498168498,77.21855921855922
53:26.811,0.70361328125,0.29052734375,1.94189453125,-8.65936279296875,0.762939453125,-14.129638671875,9.146275946275946,-23.99023199023199,69.42173382173382,-0.21826171875,2.00390625,0.16064453125,-5.21087646484375,5.43212890625,3.4942626953125,-42.58266178266178,-110.95482295482294,1.4993894993894994,0.4052734375,2.01513671875,0.27490234375,-0.1983642578125,1.0833740234375,1.1749267578125,-55.027594627594624,0.8996336996336995,77.66837606837606
53:27.640,0.64892578125,0.2607421875,1.96240234375,-7.42340087890625,-2.8533935546875,-9.45281982421875,9.146275946275946,-23.99023199023199,69.42173382173382,-0.21826171875,2.00390625,0.16064453125,0.99945068359375,1.8157958984375,-0.823974609375,-40.63345543345543,-111.1047619047619,3.1487179487179486,0.4052734375,2.01513671875,0.27490234375,-0.35858154296875,1.09100341796875,1.57928466796875,-55.027594627594624,-0.5997557997557997,76.91868131868132
53:28.420,0.65625,0.08349609375,2.07373046875,2.3651123046875,-1.93023681640625,9.91058349609375,6.447374847374848,-23.09059829059829,71.97069597069597,-0.1708984375,2.00439453125,0.15966796875,0.99945068359375,1.8157958984375,-0.823974609375,-40.63345543345543,-111.1047619047619,3.1487179487179486,0.41796875,2.02197265625,0.2646484375,-0.35858154296875,1.09100341796875,1.57928466796875,-55.027594627594624,-0.5997557997557997,76.91868131868132
53:29.298,0.61474609375,0.1142578125,2.0029296875,-0.46539306640625,-3.63922119140625,-11.9476318359375,5.097924297924298,-24.44004884004884,70.02148962148962,-0.32373046875,2.0478515625,0.11181640625,7.27081298828125,-16.6778564453125,-8.03375244140625,-41.832967032967034,-110.2051282051282,2.249084249084249,0.41357421875,2.025390625,0.27587890625,-0.93841552734375,0.89263916015625,0.84686279296875,-58.026373626373626,0.4498168498168498,77.21855921855922
53:30.126,0.7197265625,0.32861328125,1.94287109375,4.09698486328125,-0.8544921875,7.110595703125,6.747252747252747,-23.09059829059829,67.62246642246642,-0.35302734375,2.00048828125,-0.0732421875,0.8087158203125,-6.9580078125,-1.7852783203125,-40.033699633699634,-109.9052503052503,-1.6493284493284492,0.3994140625,2.025390625,0.26611328125,-1.83868408203125,0.8087158203125,1.77001953125,-56.526984126984125,0.4498168498168498,76.61880341880341
53:30.955,0.7197265625,0.32861328125,1.94287109375,-2.3345947265625,2.5482177734375,21.6827392578125,8.846398046398047,-20.24175824175824,64.17387057387057,-0.36669921875,1.9970703125,0.0185546875,3.5247802734375,-9.0789794921875,0.5645751953125,-39.13406593406593,-106.75653235653235,-5.697680097680098,0.40380859375,2.02685546875,0.27880859375,-1.4801025390625,0.80108642578125,1.96075439453125,-57.57655677655677,0.8996336996336995,76.16898656898657
53:31.737,0.771484375,0.5244140625,1.8671875,-2.3345947265625,2.5482177734375,21.6827392578125,13.344566544566543,-18.892307692307693,65.67326007326007,-0.28173828125,1.99609375,0.0693359375,-1.44195556640625,-2.89154052734375,0.1373291015625,-40.033699633699634,-107.65616605616606,-1.6493284493284492,0.40478515625,2.0205078125,0.27685546875,-1.251220703125,0.9765625,1.88446044921875,-56.826862026862024,-1.3494505494505493,78.26813186813186
53:32.661,0.82080078125,0.66748046875,1.78857421875,-1.0223388671875,3.08990478515625,15.09857177734375,13.344566544566543,-18.892307692307693,65.67326007326007,-0.31396484375,1.9814453125,0.06591796875,-1.09100341796875,0.7171630859375,1.25885009765625,-41.832967032967034,-109.15555555555555,-0.29987789987789987,0.40869140625,2.01953125,0.267578125,-2.26593017578125,0.80108642578125,2.02178955078125,-56.826862026862024,0.4498168498168498,76.91868131868132
53:33.539,0.90576171875,0.81591796875,1.7080078125,-3.021240234375,3.42559814453125,10.12420654296875,15.893528693528692,-15.593650793650793,66.27301587301586,-0.31396484375,1.9814453125,0.06591796875,-1.09100341796875,0.7171630859375,1.25885009765625,-42.13284493284493,-108.25592185592186,0.5997557997557997,0.40869140625,2.01953125,0.267578125,-2.26593017578125,0.80108642578125,2.02178955078125,-56.676923076923075,1.0495726495726496,77.81831501831502
53:34.368,0.72998046875,0.61572265625,1.82275390625,-6.65283203125,3.6468505859375,-4.5623779296875,16.193406593406593,-13.944322344322345,64.62368742368741,-0.298828125,2.0,0.0419921875,-5.05828857421875,-0.05340576171875,0.70953369140625,-42.13284493284493,-108.25592185592186,0.5997557997557997,0.3984375,2.0244140625,0.2685546875,-1.21307373046875,0.98419189453125,1.9378662109375,-56.676923076923075,1.0495726495726496,77.81831501831502
53:35.148,0.79296875,0.82373046875,1.7529296875,-5.14984130859375,-3.18145751953125,-17.6849365234375,14.544078144078144,-16.64322344322344,63.873992673992674,-0.30615234375,2.00146484375,0.02392578125,-9.490966796875,5.3863525390625,-0.63323974609375,-41.533089133089135,-110.65494505494505,-0.29987789987789987,0.40478515625,2.0244140625,0.27001953125,-0.84686279296875,0.9307861328125,1.38092041015625,-56.377045177045176,-0.7496947496947497,78.41807081807082
53:35.928,0.79296875,0.82373046875,1.7529296875,-7.5225830078125,-2.12860107421875,-16.05224609375,16.793162393162394,-16.49328449328449,62.37460317460317,-0.3203125,2.021484375,-0.05517578125,-10.1776123046875,9.674072265625,4.46319580078125,-40.18363858363858,-108.25592185592186,-2.249084249084249,0.3994140625,2.02978515625,0.2724609375,-1.4190673828125,0.90789794921875,1.91497802734375,-55.47741147741147,0.4498168498168498,76.91868131868132
53:36.708,0.841796875,0.54443359375,1.82861328125,-7.5225830078125,-2.12860107421875,-16.05224609375,16.793162393162394,-16.49328449328449,62.37460317460317,-0.3310546875,2.005859375,-0.009765625,-7.92694091796875,7.6446533203125,1.56402587890625,-39.883760683760684,-107.2063492063492,-2.848840048840049,0.4072265625,2.01904296875,0.26611328125,-0.49591064453125,0.79345703125,1.678466796875,-56.676923076923075,1.0495726495726496,76.31892551892551
53:37.585,0.751953125,0.3046875,1.92333984375,-7.3089599609375,1.5411376953125,-16.24298095703125,12.444932844932845,-16.343345543345542,63.873992673992674,-0.3310546875,2.005859375,-0.009765625,-6.5765380859375,5.645751953125,1.33514404296875,-40.18363858363858,-108.25592185592186,-2.848840048840049,0.4072265625,2.01904296875,0.26611328125,-0.66375732421875,0.92315673828125,1.86920166015625,-58.026373626373626,-0.29987789987789987,76.16898656898657
53:38.416,0.67138671875,0.1845703125,1.9560546875,-1.21307373046875,2.716064453125,-0.8392333984375,10.795604395604395,-19.34212454212454,63.724053724053725,-0.36083984375,2.0078125,-0.06201171875,-6.5765380859375,5.645751953125,1.33514404296875,-40.18363858363858,-108.25592185592186,-2.848840048840049,0.40625,2.0263671875,0.27001953125,-0.66375732421875,0.92315673828125,1.86920166015625,-58.026373626373626,-0.29987789987789987,76.16898656898657
53:39.194,0.62109375,0.1025390625,2.0361328125,-0.67901611328125,-2.26593017578125,2.15911865234375,7.047130647130647,-21.44126984126984,62.97435897435897,-0.3359375,2.03515625,-0.04248046875,-1.97601318359375,3.91387939453125,1.0986328125,-40.033699633699634,-106.15677655677655,-2.6989010989010986,0.40673828125,2.02685546875,0.27197265625,-1.03759765625,0.60272216796875,2.3193359375,-55.32747252747252,0.0,79.46764346764347
53:39.974,0.9541015625,0.18505859375,1.90185546875,-0.99945068359375,0.06866455078125,14.801025390625,7.347008547008547,-23.24053724053724,64.32380952380952,-0.32666015625,2.0078125,-0.02880859375,0.5340576171875,-6.64520263671875,2.74658203125,-41.683028083028084,-109.0056166056166,-2.848840048840049,0.4052734375,2.02099609375,0.27490234375,-0.701904296875,0.6103515625,2.5634765625,-55.77728937728938,-0.29987789987789987,77.21855921855922
53:40.754,0.9541015625,0.18505859375,1.90185546875,-0.99945068359375,0.06866455078125,14.801025390625,6.147496947496947,-22.34090354090354,62.074725274725274,-0.33154296875,2.03173828125,-0.00634765625,3.570556640625,-4.35638427734375,-0.02288818359375,-40.93333333333333,-107.5062271062271,-1.799267399267399,0.39794921875,2.029296875,0.28076171875,-1.13677978515625,0.7171630859375,1.8157958984375,-57.12673992673992,1.0495726495726496,75.26935286935287
53:41.631,0.64111328125,0.0595703125,2.0009765625,2.13623046875,-0.93841552734375,-0.08392333984375,6.147496947496947,-22.34090354090354,62.074725274725274,-0.33154296875,2.03173828125,-0.00634765625,4.9896240234375,-9.429931640625,2.41851806640625,-39.13406593406593,-107.806105006105,-2.249084249084249,0.39794921875,2.029296875,0.28076171875,-1.1138916015625,1.068115234375,1.65557861328125,-56.826862026862024,-0.5997557997557997,77.66837606837606
53:42.460,0.68701171875,0.2197265625,1.9443359375,3.0364990234375,-2.26593017578125,10.6048583984375,7.646886446886446,-22.49084249084249,62.97435897435897,-0.37255859375,2.00634765625,0.03466796875,4.9896240234375,-9.429931640625,2.41851806640625,-39.13406593406593,-107.806105006105,-2.249084249084249,0.40673828125,2.0185546875,0.28125,-1.1138916015625,1.068115234375,1.65557861328125,-56.826862026862024,-0.5997557997557997,77.66837606837606
53:43.289,0.7275390625,0.4189453125,1.89599609375,8.21685791015625,2.37274169921875,19.0582275390625,8.246642246642246,-19.49206349206349,64.17387057387057,-0.3837890625,1.9970703125,0.0625,3.96728515625,-6.0272216796875,-1.80816650390625,-41.08327228327228,-106.9064713064713,-0.8996336996336995,0.39697265625,2.01953125,0.26171875,-1.50299072265625,0.58746337890625,1.922607421875,-56.676923076923075,0.0,77.81831501831502
53:44.069,0.8017578125,0.6552734375,1.81005859375,4.08935546875,6.20269775390625,30.49468994140625,9.596092796092796,-17.692796092796094,63.873992673992674,-0.4013671875,1.98193359375,0.0869140625,2.8228759765625,-1.2359619140625,0.457763671875,-40.033699633699634,-105.55702075702075,0.4498168498168498,0.3935546875,2.02392578125,0.26611328125,-1.28173828125,0.762939453125,1.708984375,-56.227106227106226,-1.0495726495726496,77.21855921855922
53:44.849,0.8017578125,0.6552734375,1.81005859375,-2.96783447265625,-1.33514404296875,16.11328125,13.494505494505495,-13.794383394383393,62.074725274725274,-0.34423828125,1.99951171875,0.11669921875,-1.3580322265625,-2.26593017578125,-0.0762939453125,-42.28278388278388,-106.9064713064713,1.4993894993894994,0.41064453125,2.02197265625,0.2705078125,-1.678466796875,0.90789794921875,1.77001953125,-56.377045177045176,-1.1995115995115995,77.36849816849816
53:45.728,0.9931640625,0.7509765625,1.70068359375,-2.96783447265625,-1.33514404296875,16.11328125,13.494505494505495,-13.794383394383393,62.074725274725274,-0.34033203125,2.0224609375,0.11279296875,-10.30731201171875,6.29425048828125,0.8697509765625,-40.033699633699634,-107.35628815628816,1.4993894993894994,0.40673828125,2.01953125,0.2666015625,-0.701904296875,0.8392333984375,1.617431640625,-55.77728937728938,-1.0495726495726496,77.66837606837606
53:46.506,0.84765625,0.97998046875,1.7041015625,-1.6326904296875,-0.40435791015625,-11.95526123046875,18.142612942612942,-11.995115995115995,61.774847374847376,-0.34033203125,2.0224609375,0.11279296875,-10.30731201171875,6.29425048828125,0.8697509765625,-40.033699633699634,-107.35628815628816,1.4993894993894994,0.40673828125,2.01953125,0.2666015625,-0.701904296875,0.8392333984375,1.617431640625,-55.77728937728938,-1.0495726495726496,77.66837606837606
53:47.286,0.8447265625,0.68017578125,1.814453125,-6.55364990234375,-5.1116943359375,-35.980224609375,19.791941391941393,-10.945543345543346,61.774847374847376,-0.36328125,1.97998046875,0.07861328125,-10.9405517578125,4.08935546875,1.6632080078125,-39.733821733821735,-108.1059829059829,0.4498168498168498,0.39990234375,2.03173828125,0.259765625,-0.6561279296875,1.0528564453125,1.15966796875,-55.92722832722833,0.0,77.06862026862026
53:48.115,0.82470703125,0.5185546875,1.83740234375,-8.26263427734375,-3.0517578125,-24.90234375,16.49328449328449,-13.944322344322345,61.32503052503052,-0.33984375,2.0009765625,0.068359375,-10.8184814453125,8.21685791015625,1.80816650390625,-39.733821733821735,-109.15555555555555,0.14993894993894993,0.400390625,2.02392578125,0.26953125,-0.8087158203125,1.1444091796875,1.2054443359375,-56.676923076923075,0.5997557997557997,76.76874236874237
53:48.945,0.6962890625,0.2958984375,1.9228515625,-7.37762451171875,-2.09808349609375,-13.46588134765625,12.294993894993894,-13.644444444444444,63.27423687423687,-0.36181640625,1.98388671875,0.03271484375,-4.73785400390625,6.40106201171875,-1.80816650390625,-41.38315018315018,-108.55579975579975,1.0495726495726496,0.412109375,2.0185546875,0.2802734375,-0.6103515625,1.31988525390625,1.36566162109375,-56.526984126984125,-0.5997557997557997,77.66837606837606
53:49.919,0.6962890625,0.2958984375,1.9228515625,4.302978515625,2.54058837890625,2.899169921875,8.546520146520146,-18.44249084249084,60.72527472527472,-0.5263671875,1.98876953125,-0.060546875,-1.46484375,0.7781982421875,-0.40435791015625,-39.583882783882785,-108.55579975579975,0.29987789987789987,0.3896484375,2.0302734375,0.2734375,-0.54168701171875,1.007080078125,1.28936767578125,-55.92722832722833,0.5997557997557997,75.71916971916971
53:50.748,0.6484375,0.4423828125,1.908203125,4.302978515625,2.54058837890625,2.899169921875,8.546520146520146,-18.44249084249084,60.72527472527472,-0.3798828125,2.00732421875,-0.01123046875,3.0517578125,-8.67462158203125,5.7830810546875,-40.18363858363858,-107.2063492063492,-2.249084249084249,0.40869140625,2.0205078125,0.275390625,-1.07574462890625,0.823974609375,2.0294189453125,-57.42661782661782,1.799267399267399,77.06862026862026
53:51.528,0.65283203125,0.1279296875,1.98779296875,-0.35858154296875,-0.213623046875,5.59234619140625,-0.4498168498168498,-18.892307692307693,56.526984126984125,-0.3798828125,2.00732421875,-0.01123046875,3.0517578125,-8.67462158203125,5.7830810546875,-41.683028083028084,-107.5062271062271,-2.848840048840049,0.40869140625,2.0205078125,0.275390625,-1.07574462890625,0.823974609375,2.0294189453125,-57.27667887667887,0.8996336996336995,77.21855921855922
53:52.358,0.6806640625,0.13330078125,1.9765625,0.06103515625,-2.66265869140625,5.02777099609375,2.848840048840049,-23.09059829059829,60.72527472527472,-0.34375,1.98974609375,0.05615234375,2.03704833984375,-6.46209716796875,1.556396484375,-41.683028083028084,-107.5062271062271,-2.848840048840049,0.40185546875,2.02294921875,0.2744140625,-2.0599365234375,0.45013427734375,2.4871826171875,-57.27667887667887,0.8996336996336995,77.21855921855922
53:53.234,0.77734375,0.2548828125,1.92822265625,2.044677734375,-2.54058837890625,13.8397216796875,8.096703296703296,-22.19096459096459,65.37338217338217,-0.31982421875,2.01513671875,0.10986328125,6.89697265625,-6.96563720703125,1.3885498046875,-40.18363858363858,-106.45665445665445,1.6493284493284492,0.4072265625,2.0263671875,0.2666015625,-1.27410888671875,0.86212158203125,1.76239013671875,-58.026373626373626,0.14993894993894993,78.56800976800976
53:54.063,0.822265625,0.69775390625,1.81298828125,-0.091552734375,6.99615478515625,32.05108642578125,8.396581196581197,-20.39169719169719,66.72283272283272,-0.326171875,1.97607421875,0.1298828125,4.6539306640625,-4.40216064453125,-2.20489501953125,-40.033699633699634,-107.65616605616606,0.4498168498168498,0.4013671875,2.03173828125,0.2705078125,-1.617431640625,0.4425048828125,1.6326904296875,-57.57655677655677,-0.5997557997557997,77.96825396825396
53:54.940,0.822265625,0.69775390625,1.81298828125,3.92913818359375,10.040283203125,31.07452392578125,15.293772893772893,-17.39291819291819,63.873992673992674,-0.345703125,1.98486328125,0.17578125,-2.4261474609375,-1.8157958984375,-3.48663330078125,-41.533089133089135,-107.35628815628816,1.4993894993894994,0.41162109375,2.01904296875,0.2626953125,-1.04522705078125,0.92315673828125,1.21307373046875,-58.326251526251525,0.8996336996336995,77.21855921855922
53:55.720,0.83154296875,0.748046875,1.76416015625,3.92913818359375,10.040283203125,31.07452392578125,15.293772893772893,-17.39291819291819,63.873992673992674,-0.32666015625,1.99365234375,0.125,-13.12255859375,-0.18310546875,1.007080078125,-40.18363858363858,-108.25592185592186,2.0991452991452992,0.39501953125,2.0263671875,0.27392578125,-0.63323974609375,0.69427490234375,2.03704833984375,-57.12673992673992,-0.7496947496947497,78.41807081807082
53:56.500,0.58935546875,0.78125,1.8623046875,-1.495361328125,12.451171875,-1.38092041015625,16.193406593406593,-17.54285714285714,62.97435897435897,-0.32666015625,1.99365234375,0.125,-13.12255859375,-0.18310546875,1.007080078125,-41.683028083028084,-107.5062271062271,2.399023199023199,0.39501953125,2.0263671875,0.27392578125,-0.63323974609375,0.69427490234375,2.03704833984375,-58.77606837606837,0.14993894993894993,76.16898656898657
53:57.329,0.7548828125,1.05419921875,1.74658203125,2.86865234375,0.19073486328125,-11.9781494140625,17.242979242979242,-16.793162393162394,57.87643467643468,-0.30126953125,2.0087890625,0.134765625,-8.81195068359375,7.2784423828125,-0.14495849609375,-41.683028083028084,-107.5062271062271,2.399023199023199,0.40283203125,2.02490234375,0.2626953125,-0.91552734375,0.96893310546875,1.73187255859375,-58.77606837606837,0.14993894993894993,76.16898656898657
53:58.109,0.91064453125,0.76806640625,1.71826171875,-3.94439697265625,-1.983642578125,-19.1802978515625,22.64078144078144,-13.044688644688645,60.72527472527472,-0.15673828125,2.005859375,-0.00732421875,-9.88006591796875,6.87408447265625,5.9356689453125,-40.78339438339438,-107.35628815628816,2.249084249084249,0.416015625,2.02587890625,0.2646484375,-0.63323974609375,1.04522705078125,0.87738037109375,-55.027594627594624,-0.29987789987789987,76.91868131868132
53:58.891,0.91064453125,0.76806640625,1.71826171875,-5.401611328125,0.6561279296875,-13.824462890625,18.59242979242979,-14.993894993894994,64.32380952380952,-0.26611328125,1.96142578125,0.0234375,-16.3726806640625,5.0201416015625,4.44793701171875,-41.832967032967034,-109.15555555555555,-0.5997557997557997,0.4130859375,2.02197265625,0.2783203125,-0.74005126953125,0.95367431640625,2.25067138671875,-55.92722832722833,-1.9492063492063492,77.36849816849816
53:59.669,0.76708984375,0.509765625,1.85791015625,-5.401611328125,0.6561279296875,-13.824462890625,18.59242979242979,-14.993894993894994,64.32380952380952,-0.234375,2.005859375,-0.03076171875,-8.087158203125,4.60052490234375,0.08392333984375,-40.48351648351648,-108.85567765567765,0.14993894993894993,0.4072265625,2.0234375,0.2802734375,-0.84686279296875,0.8392333984375,1.19781494140625,-56.826862026862024,0.14993894993894993,76.16898656898657
54:00.546,0.6748046875,0.28076171875,1.95263671875,-5.92803955078125,-7.26318359375,-24.62005615234375,9.596092796092796,-14.094261294261294,61.17509157509157,-0.234375,2.005859375,-0.03076171875,-6.37054443359375,-0.86212158203125,0.40435791015625,-41.832967032967034,-109.45543345543345,-2.6989010989010986,0.4072265625,2.0234375,0.2802734375,-0.72479248046875,0.99945068359375,1.53350830078125,-57.27667887667887,-1.0495726495726496,77.96825396825396
54:01.424,0.67041015625,0.201171875,1.984375,-4.67681884765625,2.75421142578125,-4.23431396484375,11.095482295482295,-18.742368742368743,64.92356532356533,-0.326171875,2.00830078125,0.02392578125,-6.37054443359375,-0.86212158203125,0.40435791015625,-41.832967032967034,-109.45543345543345,-2.6989010989010986,0.4091796875,2.01171875,0.26953125,-0.72479248046875,0.99945068359375,1.53350830078125,-57.27667887667887,-1.0495726495726496,77.96825396825396
54:02.204,0.609375,0.12646484375,2.04541015625,2.34222412109375,-3.692626953125,8.6212158203125,11.845177045177044,-21.741147741147742,67.47252747252747,-0.31787109375,2.02294921875,0.01318359375,-0.78582763671875,0.83160400390625,2.0904541015625,-40.93333333333333,-107.806105006105,-3.2986568986568985,0.41552734375,2.01806640625,0.2705078125,-0.69427490234375,0.5950927734375,2.2735595703125,-55.47741147741147,0.4498168498168498,76.91868131868132
54:03.082,0.47802734375,-0.0947265625,2.11474609375,-0.95367431640625,1.3427734375,-0.1220703125,7.197069597069596,-23.09059829059829,64.17387057387057,-0.41259765625,1.98828125,-0.03076171875,1.617431640625,-3.80706787109375,0.22125244140625,-41.533089133089135,-108.85567765567765,-2.998778998778999,0.3896484375,2.0166015625,0.26953125,-0.49591064453125,0.80108642578125,1.42669677734375,-56.676923076923075,0.5997557997557997,78.41807081807082
54:03.910,0.47802734375,-0.0947265625,2.11474609375,-1.33514404296875,-2.777099609375,3.44085693359375,2.399023199023199,-21.44126984126984,60.275457875457874,-0.39306640625,1.99560546875,0.00146484375,5.4168701171875,-5.42449951171875,2.78472900390625,-39.733821733821735,-104.807326007326,-0.5997557997557997,0.4072265625,2.02197265625,0.28662109375,-0.885009765625,0.61798095703125,1.9073486328125,-56.526984126984125,-0.5997557997557997,77.66837606837606
54:04.739,0.576171875,0.03662109375,2.07080078125,-1.33514404296875,-2.777099609375,3.44085693359375,4.798046398046398,-20.69157509157509,60.87521367521367,-0.33642578125,2.01171875,0.02734375,4.00543212890625,-8.636474609375,-0.37384033203125,-39.13406593406593,-105.25714285714285,0.29987789987789987,0.4111328125,2.02392578125,0.2744140625,-1.44195556640625,0.70953369140625,1.86920166015625,-56.227106227106226,0.14993894993894993,76.91868131868132
54:05.570,0.65966796875,0.169921875,1.978515625,12.9547119140625,0.51116943359375,11.43646240234375,4.798046398046398,-20.69157509157509,60.87521367521367,-0.33642578125,2.01171875,0.02734375,4.58526611328125,-3.8604736328125,-2.1820068359375,-40.63345543345543,-108.55579975579975,-1.4993894993894994,0.4111328125,2.02392578125,0.2744140625,-1.8157958984375,0.3662109375,2.43377685546875,-55.92722832722833,-0.4498168498168498,77.81831501831502
54:06.543,0.78515625,0.43603515625,1.88623046875,2.4871826171875,-2.25830078125,6.64520263671875,7.496947496947497,-20.24175824175824,62.82442002442002,-0.4443359375,1.99169921875,0.09326171875,4.58526611328125,-3.8604736328125,-2.1820068359375,-40.78339438339438,-105.55702075702075,1.1995115995115995,0.3974609375,2.02734375,0.2685546875,-1.8157958984375,0.3662109375,2.43377685546875,-56.676923076923075,2.0991452991452992,77.36849816849816
54:07.323,0.82080078125,0.77392578125,1.7451171875,3.9520263671875,8.61358642578125,32.3944091796875,4.798046398046398,-19.64200244200244,61.32503052503052,-0.4169921875,1.962890625,0.146484375,2.73895263671875,-1.6326904296875,0.885009765625,-40.78339438339438,-105.55702075702075,1.1995115995115995,0.41064453125,2.0322265625,0.25341796875,-1.36566162109375,0.87738037109375,1.93023681640625,-56.676923076923075,2.0991452991452992,77.36849816849816
54:08.103,0.81640625,0.87353515625,1.75634765625,-0.67138671875,5.31768798828125,18.00537109375,12.594871794871795,-11.095482295482295,59.975579975579976,-0.3935546875,1.98095703125,0.1591796875,-1.67083740234375,1.45721435546875,-1.21307373046875,-40.93333333333333,-106.75653235653235,1.6493284493284492,0.40087890625,2.021484375,0.27001953125,-1.45721435546875,1.0528564453125,1.79290771484375,-56.377045177045176,-0.7496947496947497,77.36849816849816
54:08.883,0.81640625,0.87353515625,1.75634765625,-1.0986328125,12.4053955078125,-4.5928955078125,15.743589743589743,-12.894749694749695,59.52576312576312,-0.359375,1.98486328125,0.16748046875,-8.97979736328125,2.899169921875,-0.28228759765625,-39.28400488400488,-106.15677655677655,4.648107448107448,0.41259765625,2.02294921875,0.279296875,-0.9002685546875,0.6866455078125,1.94549560546875,-58.026373626373626,0.8996336996336995,77.21855921855922
54:09.663,0.6123046875,0.9619140625,1.732421875,-1.0986328125,12.4053955078125,-4.5928955078125,15.743589743589743,-12.894749694749695,59.52576312576312,-0.359375,1.98486328125,0.16748046875,-11.02447509765625,5.5084228515625,0.9307861328125,-40.78339438339438,-108.4058608058608,3.2986568986568985,0.41259765625,2.02294921875,0.279296875,-0.9613037109375,0.732421875,1.6937255859375,-58.026373626373626,-0.5997557997557997,77.96825396825396
54:10.443,0.8193359375,0.82080078125,1.7646484375,-2.20489501953125,-6.561279296875,-29.4952392578125,18.59242979242979,-15.443711843711844,61.624908424908426,-0.43017578125,1.96337890625,0.09423828125,-11.02447509765625,5.5084228515625,0.9307861328125,-40.78339438339438,-108.4058608058608,3.2986568986568985,0.400390625,2.02734375,0.27197265625,-0.9613037109375,0.732421875,1.6937255859375,-58.026373626373626,-0.5997557997557997,77.96825396825396
54:11.223,0.7744140625,0.671875,1.8134765625,-3.27301025390625,-4.974365234375,-27.3590087890625,12.744810744810744,-10.195848595848595,60.125518925518925,-0.37060546875,1.98974609375,0.10205078125,-6.69097900390625,1.22833251953125,3.24249267578125,-40.48351648351648,-106.6065934065934,1.799267399267399,0.41650390625,2.01611328125,0.2763671875,-0.54168701171875,0.81634521484375,1.0833740234375,-56.227106227106226,-1.6493284493284492,77.96825396825396
54:12.005,0.81005859375,0.619140625,1.78955078125,-11.86370849609375,-7.02667236328125,-38.71917724609375,16.193406593406593,-12.145054945054945,62.37460317460317,-0.4111328125,1.9931640625,0.12109375,-10.650634765625,10.00213623046875,3.19671630859375,-41.38315018315018,-108.25592185592186,1.6493284493284492,0.40576171875,2.021484375,0.27001953125,-0.64849853515625,0.63323974609375,1.80816650390625,-57.72649572649573,-0.7496947496947497,77.36849816849816
54:12.783,0.81005859375,0.619140625,1.78955078125,-11.86370849609375,-7.02667236328125,-38.71917724609375,12.145054945054945,-12.744810744810744,61.47496947496947,-0.3623046875,1.99267578125,0.0732421875,-7.9345703125,7.01141357421875,2.86102294921875,-40.033699633699634,-106.15677655677655,3.2986568986568985,0.40576171875,2.025390625,0.2744140625,0.41961669921875,1.3427734375,0.93841552734375,-56.227106227106226,0.4498168498168498,77.96825396825396
54:13.563,0.7314453125,0.50146484375,1.87158203125,-7.34710693359375,-3.45611572265625,-27.679443359375,12.145054945054945,-12.744810744810744,61.47496947496947,-0.3623046875,1.99267578125,0.0732421875,-7.9345703125,7.01141357421875,2.86102294921875,-40.033699633699634,-107.35628815628816,1.1995115995115995,0.40576171875,2.025390625,0.2744140625,0.41961669921875,1.3427734375,0.93841552734375,-56.676923076923075,-1.4993894993894994,77.81831501831502
54:14.343,0.70166015625,0.28662109375,1.953125,-5.89752197265625,-0.42724609375,-15.5792236328125,13.344566544566543,-12.894749694749695,61.924786324786325,-0.31982421875,2.0087890625,0.0654296875,-8.331298828125,8.61358642578125,0.1068115234375,-40.033699633699634,-107.35628815628816,1.1995115995115995,0.4091796875,2.0283203125,0.26953125,-0.5950927734375,0.9918212890625,1.47247314453125,-56.676923076923075,-1.4993894993894994,77.81831501831502
54:15.172,0.640625,0.1142578125,2.02490234375,-0.74005126953125,8.04901123046875,-8.14056396484375,8.696459096459096,-17.842735042735043,63.27423687423687,-0.306640625,2.03369140625,0.04541015625,-9.02557373046875,0.244140625,0.0,-40.63345543345543,-107.2063492063492,-0.7496947496947497,0.3984375,2.025390625,0.2802734375,-0.91552734375,0.7476806640625,2.2125244140625,-55.62735042735043,-0.7496947496947497,78.41807081807082
54:15.952,0.640625,0.1142578125,2.02490234375,-3.9215087890625,6.195068359375,1.251220703125,9.146275946275946,-20.39169719169719,63.724053724053725,-0.37353515625,2.00390625,0.00439453125,-5.14984130859375,1.44195556640625,2.11334228515625,-40.48351648351648,-108.85567765567765,-1.3494505494505493,0.41162109375,2.02294921875,0.2705078125,-0.72479248046875,0.86212158203125,1.7547607421875,-55.77728937728938,-0.29987789987789987,77.21855921855922
54:16.780,0.66015625,0.26123046875,1.947265625,-3.9215087890625,6.195068359375,1.251220703125,7.197069597069596,-18.44249084249084,62.074725274725274,-0.32763671875,1.99853515625,0.017578125,-2.01416015625,-4.8980712890625,0.61798095703125,-40.48351648351648,-107.65616605616606,-0.5997557997557997,0.40380859375,2.021484375,0.27783203125,-0.64849853515625,0.6103515625,2.28118896484375,-55.92722832722833,-0.4498168498168498,78.41807081807082
54:17.560,0.568359375,-0.11572265625,2.078125,-1.8310546875,0.30517578125,1.71661376953125,7.197069597069596,-18.44249084249084,62.074725274725274,-0.32763671875,1.99853515625,0.017578125,-2.01416015625,-4.8980712890625,0.61798095703125,-39.733821733821735,-108.1059829059829,-0.29987789987789987,0.40380859375,2.021484375,0.27783203125,-0.64849853515625,0.6103515625,2.28118896484375,-57.42661782661782,0.5997557997557997,76.76874236874237
54:18.342,0.63232421875,0.09228515625,2.01708984375,-3.448486328125,-3.3416748046875,1.617431640625,4.798046398046398,-21.44126984126984,62.37460317460317,-0.3505859375,1.99658203125,0.05224609375,3.94439697265625,-8.544921875,3.01361083984375,-39.733821733821735,-108.1059829059829,-0.29987789987789987,0.40869140625,2.01953125,0.2724609375,-1.09100341796875,0.93841552734375,1.80816650390625,-57.42661782661782,0.5997557997557997,76.76874236874237
54:19.120,0.80224609375,0.63330078125,1.8076171875,1.953125,4.150390625,24.3988037109375,4.648107448107448,-22.04102564102564,61.774847374847376,-0.322265625,1.978515625,0.10205078125,2.64739990234375,-5.3558349609375,-2.32696533203125,-39.583882783882785,-108.25592185592186,0.29987789987789987,0.40283203125,2.037109375,0.2880859375,-1.59454345703125,0.6866455078125,1.83868408203125,-56.377045177045176,1.3494505494505493,77.06862026862026
54:19.901,0.80224609375,0.63330078125,1.8076171875,3.79180908203125,6.6070556640625,21.00372314453125,15.293772893772893,-13.794383394383393,63.42417582417582,-0.37255859375,1.9951171875,0.14599609375,-2.08282470703125,-2.55584716796875,-2.34222412109375,-40.63345543345543,-107.5062271062271,3.7484737484737485,0.4072265625,2.02001953125,0.27001953125,-1.62506103515625,0.95367431640625,0.95367431640625,-55.62735042735043,0.29987789987789987,77.06862026862026
54:20.729,0.833984375,0.75927734375,1.77001953125,3.79180908203125,6.6070556640625,21.00372314453125,15.293772893772893,-13.794383394383393,63.42417582417582,-0.35888671875,1.98193359375,0.14697265625,-2.87628173828125,-0.64849853515625,0.79345703125,-39.583882783882785,-108.25592185592186,1.3494505494505493,0.41015625,2.0302734375,0.2744140625,-1.39617919921875,0.946044921875,1.9378662109375,-56.526984126984125,1.1995115995115995,77.66837606837606
54:21.558,0.9248046875,0.7294921875,1.74169921875,-0.55694580078125,0.6103515625,15.6097412109375,17.242979242979242,-14.993894993894994,62.67448107448107,-0.35888671875,1.98193359375,0.14697265625,-2.87628173828125,-0.64849853515625,0.79345703125,-41.533089133089135,-108.1059829059829,1.4993894993894994,0.41015625,2.0302734375,0.2744140625,-1.39617919921875,0.946044921875,1.9378662109375,-55.027594627594624,-1.3494505494505493,76.91868131868132
54:22.387,0.6865234375,0.95556640625,1.75732421875,0.18310546875,3.8299560546875,7.904052734375,17.242979242979242,-17.093040293040293,60.57533577533577,-0.34765625,1.95703125,0.14013671875,-2.9144287109375,2.3956298828125,0.96893310546875,-41.533089133089135,-108.1059829059829,1.4993894993894994,0.40771484375,2.0185546875,0.25927734375,-1.5716552734375,0.45013427734375,2.44903564453125,-55.027594627594624,-1.3494505494505493,76.91868131868132
54:23.167,0.6435546875,1.11865234375,1.63134765625,0.98419189453125,8.38470458984375,-5.74493408203125,17.54285714285714,-15.743589743589743,60.57533577533577,-0.3232421875,2.0,0.115234375,-7.415771484375,4.69207763671875,-1.9683837890625,-38.68424908424908,-108.4058608058608,3.598534798534798,0.3984375,2.02587890625,0.2724609375,-1.40380859375,0.9613037109375,1.2359619140625,-56.526984126984125,0.14993894993894993,78.56800976800976
54:23.995,0.90380859375,0.65380859375,1.77587890625,-8.97216796875,-1.30462646484375,-26.57318115234375,17.093040293040293,-18.44249084249084,63.873992673992674,-0.3193359375,1.9912109375,0.11669921875,-11.7034912109375,5.0506591796875,2.02178955078125,-38.98412698412698,-108.1059829059829,2.548962148962149,0.3935546875,2.0234375,0.27392578125,-0.823974609375,0.66375732421875,1.953125,-56.377045177045176,0.5997557997557997,77.36849816849816
54:24.775,0.90380859375,0.65380859375,1.77587890625,-8.97216796875,-1.30462646484375,-26.57318115234375,11.845177045177044,-18.29255189255189,63.27423687423687,-0.2802734375,1.98828125,0.1640625,-6.69097900390625,6.50787353515625,1.15203857421875,-40.18363858363858,-108.55579975579975,2.0991452991452992,0.39111328125,2.033203125,0.27392578125,-1.220703125,0.8697509765625,2.12860107421875,-56.826862026862024,0.8996336996336995,79.01782661782661
54:25.555,0.87451171875,0.78076171875,1.7470703125,-3.5247802734375,-3.2501220703125,-27.62603759765625,11.845177045177044,-18.29255189255189,63.27423687423687,-0.2802734375,1.98828125,0.1640625,-8.49151611328125,7.68280029296875,1.86920166015625,-40.78339438339438,-108.1059829059829,1.799267399267399,0.39111328125,2.033203125,0.27392578125,-0.70953369140625,1.007080078125,1.39617919921875,-55.92722832722833,0.29987789987789987,77.36849816849816
54:26.433,0.8671875,0.5986328125,1.79541015625,-3.72314453125,-2.197265625,-26.4434814453125,15.893528693528692,-18.742368742368743,63.873992673992674,-0.31591796875,1.98779296875,0.0966796875,-8.49151611328125,7.68280029296875,1.86920166015625,-40.78339438339438,-108.1059829059829,1.799267399267399,0.4052734375,2.02490234375,0.27783203125,-0.70953369140625,1.007080078125,1.39617919921875,-55.92722832722833,0.29987789987789987,77.36849816849816
54:27.213,0.8251953125,0.43701171875,1.87939453125,-5.91278076171875,-1.53350830078125,-19.9432373046875,16.64322344322344,-15.593650793650793,63.42417582417582,-0.34521484375,1.9892578125,0.072265625,-10.12420654296875,3.41796875,1.06048583984375,-39.733821733821735,-107.35628815628816,1.799267399267399,0.40185546875,2.02490234375,0.26953125,-1.007080078125,1.21307373046875,1.0986328125,-57.12673992673992,0.5997557997557997,77.81831501831502
54:27.993,0.8046875,0.482421875,1.86279296875,-4.63104248046875,-1.2359619140625,-18.16558837890625,14.843956043956043,-18.44249084249084,64.92356532356533,-0.31591796875,2.0009765625,0.11376953125,-8.62884521484375,4.23431396484375,3.10516357421875,-39.883760683760684,-107.2063492063492,0.0,0.41552734375,2.017578125,0.27197265625,-0.72479248046875,1.04522705078125,1.73187255859375,-56.526984126984125,-1.0495726495726496,77.21855921855922
54:28.870,0.8046875,0.482421875,1.86279296875,-4.0740966796875,1.96075439453125,-6.8206787109375,13.044688644688645,-17.093040293040293,64.32380952380952,-0.28857421875,1.9951171875,0.0458984375,-4.08935546875,2.15911865234375,1.30462646484375,-39.733821733821735,-108.1059829059829,1.1995115995115995,0.40673828125,2.02197265625,0.28271484375,-0.57220458984375,0.946044921875,1.4495849609375,-56.377045177045176,0.0,76.76874236874237
54:29.650,0.7236328125,0.2685546875,1.916015625,-4.0740966796875,1.96075439453125,-6.8206787109375,13.044688644688645,-17.093040293040293,64.32380952380952,-0.28857421875,1.9951171875,0.0458984375,-4.89044189453125,15.6097412109375,4.69207763671875,-40.48351648351648,-106.6065934065934,1.1995115995115995,0.40673828125,2.02197265625,0.28271484375,-0.63323974609375,0.78582763671875,2.47955322265625,-56.227106227106226,0.14993894993894993,76.91868131868132
54:30.430,0.771484375,0.26513671875,1.94921875,4.0130615234375,1.02996826171875,7.07244873046875,11.395360195360196,-19.791941391941393,66.27301587301586,-0.29541015625,1.9697265625,0.0966796875,-4.89044189453125,15.6097412109375,4.69207763671875,-40.48351648351648,-106.6065934065934,1.1995115995115995,0.40185546875,2.0263671875,0.26904296875,-0.63323974609375,0.78582763671875,2.47955322265625,-56.227106227106226,0.14993894993894993,76.91868131868132
54:31.260,0.724609375,0.46142578125,1.89013671875,-2.9449462890625,-0.60272216796875,0.6866455078125,7.496947496947497,-19.791941391941393,64.92356532356533,-0.34130859375,2.0234375,0.01806640625,-1.4495849609375,-0.6561279296875,0.1068115234375,-41.38315018315018,-108.25592185592186,-0.7496947496947497,0.4033203125,2.0244140625,0.27392578125,-1.16729736328125,1.04522705078125,1.7242431640625,-55.027594627594624,-1.0495726495726496,77.21855921855922
54:32.088,0.73974609375,0.39208984375,1.8876953125,-1.007080078125,-5.97381591796875,-1.76239013671875,15.743589743589743,-13.944322344322345,65.07350427350427,-0.326171875,2.0224609375,0.0078125,-7.354736328125,-4.47845458984375,1.16729736328125,-42.58266178266178,-109.15555555555555,1.1995115995115995,0.39013671875,2.03076171875,0.259765625,0.61798095703125,1.28173828125,0.66375732421875,-55.92722832722833,-1.1995115995115995,77.06862026862026
54:32.917,0.89306640625,0.8876953125,1.71484375,-2.655029296875,7.19451904296875,39.031982421875,15.143833943833943,-14.244200244200243,63.27423687423687,-0.341796875,1.97705078125,0.115234375,5.645751953125,-13.6871337890625,-0.48828125,-40.78339438339438,-107.65616605616606,-0.5997557997557997,0.39697265625,2.0244140625,0.26513671875,-3.24249267578125,-0.23651123046875,3.0059814453125,-56.676923076923075,-0.4498168498168498,77.81831501831502
54:33.892,0.89306640625,0.8876953125,1.71484375,4.6844482421875,-0.5950927734375,-1.48773193359375,14.244200244200243,-16.343345543345542,63.42417582417582,-0.29150390625,2.03564453125,0.03369140625,9.74273681640625,-13.18359375,-0.55694580078125,-39.28400488400488,-108.1059829059829,0.7496947496947497,0.3984375,2.0283203125,0.2861328125,0.51116943359375,0.95367431640625,1.15966796875,-57.57655677655677,-0.29987789987789987,76.91868131868132
54:34.720,0.49755859375,-0.2685546875,2.14111328125,4.6844482421875,-0.5950927734375,-1.48773193359375,14.244200244200243,-16.343345543345542,63.42417582417582,-0.15673828125,1.91650390625,0.09375,2.51007080078125,-6.8206787109375,8.7890625,-40.18363858363858,-107.2063492063492,-1.1995115995115995,0.41357421875,2.02587890625,0.26171875,-0.38909912109375,0.54168701171875,2.28118896484375,-54.727716727716725,0.14993894993894993,77.66837606837606
54:35.549,0.478515625,-0.0556640625,2.00341796875,1.0833740234375,6.82830810546875,16.0675048828125,5.847619047619047,-23.24053724053724,63.27423687423687,-0.15673828125,1.91650390625,0.09375,2.51007080078125,-6.8206787109375,8.7890625,-39.733821733821735,-106.9064713064713,-0.5997557997557997,0.41357421875,2.02587890625,0.26171875,-0.38909912109375,0.54168701171875,2.28118896484375,-56.676923076923075,-1.1995115995115995,77.81831501831502
54:36.329,0.66552734375,0.18115234375,1.96728515625,-11.3067626953125,-1.39617919921875,-14.38140869140625,5.547741147741148,-23.54041514041514,64.02393162393162,-0.37890625,2.01220703125,0.03369140625,-10.30731201171875,10.79559326171875,0.213623046875,-39.733821733821735,-106.9064713064713,-0.5997557997557997,0.4033203125,2.01904296875,0.26904296875,-0.5950927734375,1.1444091796875,1.51824951171875,-56.676923076923075,-1.1995115995115995,77.81831501831502
54:37.109,0.638671875,0.13330078125,1.9853515625,-0.3204345703125,3.85284423828125,7.8277587890625,9.146275946275946,-19.941880341880342,64.32380952380952,-0.400390625,1.9951171875,-0.01123046875,-4.5623779296875,3.5400390625,0.579833984375,-41.38315018315018,-107.2063492063492,-1.799267399267399,0.40966796875,2.0244140625,0.2734375,-0.78582763671875,0.92315673828125,1.9378662109375,-58.026373626373626,-0.5997557997557997,77.96825396825396
54:37.987,0.62646484375,0.10107421875,2.0966796875,-2.14385986328125,-3.7384033203125,1.42669677734375,6.597313797313797,-19.941880341880342,61.624908424908426,-0.412109375,2.01220703125,-0.01708984375,-3.0517578125,6.3323974609375,2.5177001953125,-41.533089133089135,-107.65616605616606,-2.6989010989010986,0.3974609375,2.0244140625,0.2685546875,-0.640869140625,0.78582763671875,2.15911865234375,-57.27667887667887,0.8996336996336995,77.66837606837606
54:38.767,0.62646484375,0.10107421875,2.0966796875,-2.14385986328125,-3.7384033203125,1.42669677734375,3.1487179487179486,-19.941880341880342,60.275457875457874,-0.37744140625,2.02001953125,-0.02490234375,-1.2054443359375,3.7689208984375,2.3651123046875,-39.28400488400488,-105.55702075702075,-1.9492063492063492,0.4052734375,2.02685546875,0.2783203125,-1.0986328125,0.60272216796875,1.739501953125,-56.377045177045176,-1.9492063492063492,78.41807081807082
54:39.595,0.58984375,0.091796875,2.0498046875,-1.50299072265625,0.091552734375,4.8065185546875,3.1487179487179486,-19.941880341880342,60.275457875457874,-0.37744140625,2.02001953125,-0.02490234375,-1.2054443359375,3.7689208984375,2.3651123046875,-40.63345543345543,-106.45665445665445,-1.799267399267399,0.4052734375,2.02685546875,0.2783203125,-1.0986328125,0.60272216796875,1.739501953125,-55.92722832722833,-0.4498168498168498,77.81831501831502
54:40.375,0.56494140625,0.1416015625,2.03515625,-11.86370849609375,-0.98419189453125,-5.3253173828125,3.2986568986568985,-21.59120879120879,58.77606837606837,-0.3984375,2.0263671875,-0.01904296875,-5.89752197265625,-0.22125244140625,0.57220458984375,-40.63345543345543,-106.45665445665445,-1.799267399267399,0.4091796875,2.02001953125,0.27099609375,-0.823974609375,0.63323974609375,2.28118896484375,-55.92722832722833,-0.4498168498168498,77.81831501831502
54:41.155,0.6484375,0.2138671875,2.001953125,-6.47735595703125,8.0413818359375,-2.63214111328125,1.1995115995115995,-21.29133089133089,59.07594627594627,-0.41455078125,2.0,0.02001953125,-9.91058349609375,3.0975341796875,1.64031982421875,-40.033699633699634,-106.6065934065934,-2.6989010989010986,0.4052734375,2.029296875,0.27978515625,-0.74005126953125,0.579833984375,1.91497802734375,-57.42661782661782,-0.4498168498168498,78.11819291819292
54:41.935,0.6484375,0.2138671875,2.001953125,-9.5672607421875,-1.708984375,-7.6751708984375,4.648107448107448,-20.24175824175824,59.67570207570208,-0.39111328125,1.998046875,0.07763671875,-6.3018798828125,3.16619873046875,1.25885009765625,-40.63345543345543,-107.2063492063492,-1.4993894993894994,0.39697265625,2.0302734375,0.2724609375,-0.74005126953125,0.79345703125,1.708984375,-56.377045177045176,-1.4993894993894994,77.06862026862026
54:42.715,0.75390625,0.271484375,1.91015625,-9.5672607421875,-1.708984375,-7.6751708984375,4.648107448107448,-20.24175824175824,59.67570207570208,-0.39111328125,1.998046875,0.07763671875,1.50299072265625,0.12969970703125,1.251220703125,-40.78339438339438,-106.6065934065934,-1.6493284493284492,0.39697265625,2.0302734375,0.2724609375,-0.81634521484375,0.75531005859375,1.62506103515625,-56.826862026862024,0.14993894993894993,77.21855921855922
54:43.495,0.7958984375,0.0771484375,1.93310546875,1.85394287109375,4.9896240234375,11.9476318359375,7.347008547008547,-21.741147741147742,63.724053724053725,-0.4677734375,1.98828125,0.060546875,1.50299072265625,0.12969970703125,1.251220703125,-40.78339438339438,-106.6065934065934,-1.6493284493284492,0.412109375,2.01708984375,0.2822265625,-0.81634521484375,0.75531005859375,1.62506103515625,-56.826862026862024,0.14993894993894993,77.21855921855922
54:44.275,0.5615234375,0.091796875,1.99951171875,-2.86865234375,0.25177001953125,7.07244873046875,6.147496947496947,-24.44004884004884,60.72527472527472,-0.40576171875,2.021484375,0.10986328125,-1.495361328125,-5.889892578125,4.49371337890625,-40.033699633699634,-105.10720390720391,1.4993894993894994,0.3984375,2.02392578125,0.27783203125,-0.7171630859375,0.74005126953125,1.73187255859375,-56.377045177045176,-2.249084249084249,77.81831501831502
54:45.056,0.74462890625,0.40869140625,1.892578125,3.28826904296875,3.3111572265625,5.096435546875,7.197069597069596,-21.59120879120879,60.125518925518925,-0.43359375,1.98486328125,0.119140625,-3.56292724609375,3.01361083984375,1.4801025390625,-40.033699633699634,-106.15677655677655,1.1995115995115995,0.41455078125,2.0185546875,0.2802734375,-0.86212158203125,0.48828125,1.83868408203125,-57.12673992673992,-0.4498168498168498,76.76874236874237
54:45.835,0.74462890625,0.40869140625,1.892578125,3.28826904296875,3.3111572265625,5.096435546875,6.147496947496947,-23.09059829059829,62.074725274725274,-0.396484375,1.99755859375,0.13525390625,-6.3323974609375,-6.40106201171875,2.96783447265625,-39.733821733821735,-106.15677655677655,1.799267399267399,0.4033203125,2.02197265625,0.2646484375,-0.43487548828125,0.70953369140625,2.838134765625,-56.826862026862024,0.14993894993894993,76.91868131868132
54:46.664,0.6884765625,-0.15380859375,2.08349609375,-1.07574462890625,0.06866455078125,3.12042236328125,6.147496947496947,-23.09059829059829,62.074725274725274,-0.396484375,1.99755859375,0.13525390625,-7.049560546875,3.86810302734375,3.173828125,-41.38315018315018,-106.75653235653235,0.29987789987789987,0.4033203125,2.02197265625,0.2646484375,0.35858154296875,1.47247314453125,0.28228759765625,-56.227106227106226,0.4498168498168498,76.61880341880341
54:47.542,0.74951171875,-0.013671875,1.97998046875,0.4425048828125,6.75201416015625,0.6561279296875,5.547741147741148,-26.83907203907204,59.975579975579976,-0.3193359375,1.95361328125,0.19775390625,-7.049560546875,3.86810302734375,3.173828125,-42.28278388278388,-109.15555555555555,2.548962148962149,0.42041015625,2.021484375,0.28955078125,0.35858154296875,1.47247314453125,0.28228759765625,-56.377045177045176,-0.4498168498168498,76.31892551892551
54:48.370,0.8369140625,0.3115234375,1.90380859375,-6.622314453125,0.92315673828125,-20.8282470703125,7.796825396825397,-25.489621489621488,64.17387057387057,-0.28955078125,2.00830078125,-0.0244140625,-9.77325439453125,15.0604248046875,1.62506103515625,-42.28278388278388,-109.15555555555555,2.548962148962149,0.40576171875,2.01953125,0.2685546875,-0.3662109375,1.09100341796875,1.30462646484375,-56.377045177045176,-0.4498168498168498,76.31892551892551
54:49.150,0.75,0.40869140625,1.90673828125,-8.209228515625,-6.34765625,-33.3099365234375,11.845177045177044,-20.39169719169719,64.62368742368741,-0.31201171875,1.98828125,0.0625,-13.06915283203125,11.8255615234375,0.11444091796875,-40.93333333333333,-107.806105006105,-1.799267399267399,0.41259765625,2.0234375,0.2744140625,0.31280517578125,1.59454345703125,0.66375732421875,-58.476190476190474,-1.9492063492063492,76.76874236874237
54:49.930,0.75,0.40869140625,1.90673828125,-17.6849365234375,-8.29315185546875,-27.90069580078125,10.795604395604395,-19.34212454212454,65.67326007326007,-0.330078125,1.880859375,0.205078125,-2.61688232421875,-7.0648193359375,2.685546875,-39.583882783882785,-109.0056166056166,-1.4993894993894994,0.392578125,2.02587890625,0.2626953125,0.28228759765625,1.2969970703125,0.3814697265625,-57.12673992673992,1.3494505494505493,77.06862026862026
54:50.710,0.7890625,0.59326171875,1.83056640625,-17.6849365234375,-8.29315185546875,-27.90069580078125,10.795604395604395,-19.34212454212454,65.67326007326007,-0.52783203125,2.115234375,0.322265625,-3.74603271484375,-16.387939453125,-0.4730224609375,-41.533089133089135,-106.9064713064713,6.447374847374848,0.37109375,2.03955078125,0.228515625,-1.18255615234375,1.0833740234375,1.94549560546875,-57.12673992673992,0.29987789987789987,76.76874236874237
54:51.539,0.88134765625,0.8779296875,1.78857421875,2.777099609375,-6.12640380859375,3.85284423828125,10.345787545787545,-20.841514041514042,61.774847374847376,-0.52783203125,2.115234375,0.322265625,-3.74603271484375,-16.387939453125,-0.4730224609375,-39.583882783882785,-104.2075702075702,6.297435897435897,0.37109375,2.03955078125,0.228515625,-1.18255615234375,1.0833740234375,1.94549560546875,-57.12673992673992,-0.7496947496947497,75.26935286935287
54:52.320,0.939453125,1.26416015625,1.859375,-4.57000732421875,38.5894775390625,12.1307373046875,15.143833943833943,-17.842735042735043,60.275457875457874,0.06982421875,1.76513671875,0.8291015625,13.35906982421875,11.1846923828125,-3.5858154296875,-39.583882783882785,-104.2075702075702,6.297435897435897,-0.19580078125,1.97119140625,0.27587890625,-4.47845458984375,12.30621337890625,-28.6407470703125,-57.12673992673992,-0.7496947496947497,75.26935286935287
54:53.099,0.8359375,0.7177734375,1.72802734375,8.21685791015625,3.2958984375,27.50396728515625,15.593650793650793,-17.692796092796094,63.42417582417582,-0.12548828125,1.982421875,0.10791015625,19.5465087890625,2.7923583984375,-12.8173828125,-36.135286935286935,-116.05274725274725,30.737484737484735,1.0703125,1.76611328125,0.2177734375,4.4403076171875,12.53509521484375,-11.53564453125,-59.07594627594627,17.842735042735043,80.06739926739927
54:53.879,0.8359375,0.7177734375,1.72802734375,-7.13348388671875,-0.51116943359375,-3.39508056640625,11.545299145299145,-22.49084249084249,69.87155067155066,-0.37353515625,2.01416015625,-0.10302734375,3.936767578125,-17.66204833984375,0.213623046875,-41.683028083028084,-110.5050061050061,-0.7496947496947497,0.603515625,1.96337890625,0.35791015625,-0.5645751953125,7.05718994140625,-4.02069091796875,-46.63101343101343,-15.593650793650793,69.72161172161172
54:54.659,0.56591796875,-0.48486328125,2.18017578125,-7.13348388671875,-0.51116943359375,-3.39508056640625,11.545299145299145,-22.49084249084249,69.87155067155066,-0.37353515625,2.01416015625,-0.10302734375,-2.9296875,-3.6773681640625,2.32696533203125,-40.033699633699634,-107.65616605616606,-5.547741147741148,0.603515625,1.96337890625,0.35791015625,-0.4119873046875,0.66375732421875,2.0294189453125,-52.928449328449325,-4.648107448107448,71.37094017094017
