time,hand_accelerometer_x,hand_accelerometer_y,hand_accelerometer_z,hand_gyroscope_x,hand_gyroscope_y,hand_gyroscope_z,hand_magnetometer_x,hand_magnetometer_y,hand_magnetometer_z,ankle_accelerometer_x,ankle_accelerometer_y,ankle_accelerometer_z,ankle_gyroscope_x,ankle_gyroscope_y,ankle_gyroscope_z,ankle_magnetometer_x,ankle_magnetometer_y,ankle_magnetometer_z,chest_accelerometer_x,chest_accelerometer_y,chest_accelerometer_z,chest_gyroscope_x,chest_gyroscope_y,chest_gyroscope_z,chest_magnetometer_x,chest_magnetometer_y,chest_magnetometer_z
33:39.748,0.9775390625,0.95068359375,1.56640625,-1.46484375,-0.6866455078125,-0.6256103515625,-0.5997557997557997,-14.544078144078144,48.13040293040293,-1.92138671875,-0.02783203125,0.44580078125,-4.73785400390625,2.52532958984375,-0.35858154296875,1.799267399267399,-53.97802197802198,53.37826617826617,-0.0126953125,2.06103515625,0.0498046875,-1.3885498046875,0.9918212890625,1.7852783203125,-78.56800976800976,27.288888888888888,26.98901098901099
33:40.529,1.45263671875,1.37548828125,1.7705078125,60.08148193359375,-65.74249267578125,16.76177978515625,-1.3494505494505493,-13.044688644688645,47.83052503052503,-2.3349609375,-0.29638671875,-0.25390625,-13.336181640625,65.1397705078125,-25.115966796875,1.1995115995115995,-53.078388278388275,54.877655677655675,0.07080078125,2.06591796875,-0.4580078125,-1.64794921875,-0.31280517578125,0.28228759765625,-80.36727716727717,27.288888888888888,26.98901098901099
33:41.309,1.45263671875,1.37548828125,1.7705078125,60.08148193359375,-65.74249267578125,16.76177978515625,-11.695238095238095,-16.043467643467643,32.686691086691084,-1.830078125,-0.306640625,-0.08837890625,-111.9232177734375,-5.01251220703125,-5.97381591796875,5.847619047619047,-51.57899877899878,34.485958485958484,0.45751953125,1.98681640625,-0.79833984375,-103.2562255859375,159.78240966796875,-38.4368896484375,-89.51355311355312,22.79072039072039,6.597313797313797
33:42.576,0.7509765625,1.9619140625,0.5703125,-11.4593505859375,-32.84454345703125,-5.92041015625,-30.737484737484735,-11.845177045177044,2.6989010989010986,-2.0048828125,-0.66015625,0.25634765625,57.42645263671875,-8.94927978515625,24.8565673828125,22.19096459096459,-58.176312576312576,66.87277167277168,0.650390625,1.35400390625,-0.513671875,38.787841796875,32.14263916015625,-4.38690185546875,-87.26446886446887,26.539194139194137,17.242979242979242
33:43.551,1.5458984375,2.537109375,0.63916015625,11.28387451171875,5.79071044921875,-141.2506103515625,-29.687912087912085,-5.097924297924298,7.796825396825397,-1.99658203125,-0.6796875,0.205078125,48.04229736328125,-0.6103515625,-41.0614013671875,29.388034188034187,-61.17509157509157,64.47374847374847,-0.6220703125,2.599609375,-0.8037109375,-250.0,-51.65863037109375,-41.48101806640625,-55.027594627594624,10.645665445665445,65.37338217338217
33:44.380,1.5458984375,2.537109375,0.63916015625,11.28387451171875,5.79071044921875,-141.2506103515625,-18.29255189255189,-19.19218559218559,1.0495726495726496,-1.482421875,-0.04345703125,0.94580078125,7.2174072265625,-0.41961669921875,-7.20977783203125,7.347008547008547,-66.57289377289376,67.62246642246642,1.056640625,2.42626953125,-0.8759765625,134.246826171875,-28.12957763671875,-16.47186279296875,-40.78339438339438,4.1982905982905985,63.12429792429792
33:45.160,0.75,1.279296875,0.61083984375,-8.29315185546875,99.49493408203125,46.45538330078125,-18.29255189255189,-19.19218559218559,1.0495726495726496,-1.482421875,-0.04345703125,0.94580078125,-3.0975341796875,-23.0560302734375,-8.2244873046875,6.147496947496947,-70.17142857142856,68.07228327228327,0.490234375,2.2099609375,-0.2314453125,79.65850830078125,-11.4898681640625,-5.859375,-44.08205128205128,8.996336996336996,15.293772893772893
33:46.379,0.7509765625,2.376953125,0.361328125,-23.18572998046875,116.35589599609375,128.59344482421875,-7.946764346764346,-16.64322344322344,10.045909645909646,-2.48291015625,0.21875,1.32421875,14.3585205078125,-3.7841796875,-1.8157958984375,10.195848595848595,-75.41929181929181,72.42051282051281,0.54443359375,2.06005859375,0.33984375,38.79547119140625,-73.2421875,-3.83758544921875,-39.583882783882785,0.14993894993894993,85.91501831501832
33:47.256,0.7666015625,2.7919921875,0.720703125,-23.93341064453125,-12.786865234375,68.5272216796875,-7.946764346764346,-16.64322344322344,10.045909645909646,-1.8388671875,-0.3125,0.7275390625,108.978271484375,15.6707763671875,-69.35882568359375,12.894749694749695,-75.56923076923077,65.97313797313797,0.47021484375,1.84228515625,0.10107421875,-15.68603515625,-250.0,2.12860107421875,1.0495726495726496,9.296214896214895,54.427838827838826
33:48.085,0.64111328125,1.4970703125,0.49365234375,-81.84814453125,-161.712646484375,-7.45391845703125,-15.593650793650793,-6.897191697191697,-4.498168498168498,-1.8388671875,-0.3125,0.7275390625,108.978271484375,15.6707763671875,-69.35882568359375,8.996336996336996,-70.77118437118438,60.425396825396824,0.47021484375,1.84228515625,0.10107421875,-15.68603515625,-250.0,2.12860107421875,-1.6493284493284492,30.437606837606836,44.38192918192918
33:48.914,1.25537109375,1.35986328125,1.0419921875,-38.14697265625,-8.97979736328125,5.77545166015625,-15.743589743589743,-7.347008547008547,-13.494505494505495,-1.44873046875,0.1826171875,1.09765625,45.38726806640625,11.90948486328125,-36.6973876953125,8.996336996336996,-70.77118437118438,60.425396825396824,0.49267578125,2.90283203125,0.0341796875,111.16790771484375,-29.80804443359375,11.65008544921875,-1.6493284493284492,30.437606837606836,44.38192918192918
33:49.791,1.02685546875,1.74658203125,0.7138671875,-8.62884521484375,-12.30621337890625,41.28265380859375,-17.992673992673993,0.0,-22.19096459096459,-1.6025390625,0.0771484375,0.57470703125,6.08062744140625,-22.62115478515625,-5.19561767578125,0.29987789987789987,-67.47252747252747,33.73626373626374,0.501953125,2.046875,0.0263671875,81.0089111328125,-14.6636962890625,-3.35693359375,-1.9492063492063492,40.48351648351648,64.92356532356533
33:50.864,0.89599609375,1.380859375,0.6455078125,21.3623046875,5.19561767578125,-14.19830322265625,-22.34090354090354,18.142612942612942,-16.043467643467643,-1.39453125,-0.2265625,0.95703125,-28.16009521484375,10.345458984375,33.66851806640625,13.194627594627594,-63.724053724053725,36.285225885225884,0.71533203125,2.41259765625,0.1552734375,70.65582275390625,56.83135986328125,42.6025390625,-50.52942612942613,38.98412698412698,-33.28644688644688
33:51.741,0.556640625,1.09228515625,0.51416015625,-15.32745361328125,0.87738037109375,9.8724365234375,-32.536752136752135,9.895970695970696,-19.791941391941393,-1.30517578125,0.03662109375,0.06689453125,0.08392333984375,3.91387939453125,5.18035888671875,18.142612942612942,-60.72527472527472,43.03247863247863,1.07373046875,2.18310546875,-0.5615234375,-232.13958740234375,121.1090087890625,-46.5240478515625,-39.433943833943836,31.787057387057384,27.438827838827837
33:52.619,2.0166015625,1.21728515625,0.29296875,-34.37042236328125,-47.61505126953125,95.80230712890625,-26.83907203907204,14.544078144078144,-9.895970695970696,-1.54541015625,0.5341796875,1.033203125,1.25885009765625,0.396728515625,0.63323974609375,21.59120879120879,-61.624908424908426,52.928449328449325,1.30615234375,2.7783203125,0.3037109375,140.87677001953125,-0.45013427734375,1.97601318359375,-43.03247863247863,36.435164835164834,-7.796825396825397
33:53.642,1.86376953125,0.095703125,0.7568359375,67.962646484375,-67.46673583984375,42.6788330078125,-39.883760683760684,-11.845177045177044,-25.639560439560437,-1.81640625,0.1689453125,0.55859375,34.8968505859375,25.848388671875,-47.58453369140625,4.798046398046398,-58.176312576312576,39.13406593406593,0.3388671875,2.04833984375,0.181640625,10.1470947265625,-11.7034912109375,13.71002197265625,-38.98412698412698,32.08693528693529,-14.094261294261294
33:54.471,1.86376953125,0.095703125,0.7568359375,-10.29205322265625,95.45135498046875,-16.21246337890625,-12.594871794871795,-30.137728937728937,10.345787545787545,-1.47802734375,-0.7646484375,0.865234375,-15.716552734375,-11.05499267578125,6.2713623046875,14.993894993894994,-54.577777777777776,51.129181929181925,0.146484375,1.8759765625,0.31787109375,-33.66851806640625,-56.8695068359375,-24.9176025390625,-75.71916971916971,22.94065934065934,-42.88253968253968
33:55.251,2.3212890625,0.873046875,0.51171875,-10.29205322265625,95.45135498046875,-16.21246337890625,-4.648107448107448,-31.787057387057384,-29.388034188034187,-1.65380859375,-0.12548828125,1.20849609375,55.145263671875,1.4801025390625,-14.80865478515625,18.892307692307693,-55.32747252747252,57.42661782661782,0.5439453125,2.01513671875,-0.1259765625,31.43310546875,-29.0374755859375,-0.54168701171875,-90.56312576312575,33.88620268620269,-40.18363858363858
33:56.226,0.86279296875,1.99560546875,0.54052734375,-0.6866455078125,-6.3934326171875,17.1051025390625,-4.648107448107448,-31.787057387057384,-29.388034188034187,-1.65380859375,-0.12548828125,1.20849609375,-49.32403564453125,0.19073486328125,32.8369140625,15.743589743589743,-49.77973137973138,67.17264957264958,0.5439453125,2.01513671875,-0.1259765625,75.78277587890625,64.38446044921875,24.83367919921875,-82.76630036630036,41.23321123321123,-48.28034188034188
33:57.006,0.693359375,1.43701171875,0.6025390625,49.560546875,59.56268310546875,-23.468017578125,-68.67203907203907,2.249084249084249,-52.32869352869353,-1.75146484375,-0.1357421875,0.84423828125,71.0906982421875,22.54486083984375,-51.361083984375,-2.399023199023199,-42.43272283272283,58.476190476190474,0.6845703125,2.4658203125,-0.07666015625,-49.1943359375,-250.0,-25.054931640625,-77.06862026862026,16.043467643467643,35.985347985347985
33:58.030,1.0615234375,2.05859375,-0.2060546875,-94.2230224609375,-250.0,-97.70965576171875,-51.72893772893773,-30.587545787545785,-25.78949938949939,-1.453125,-0.57763671875,0.84423828125,71.0906982421875,22.54486083984375,-51.361083984375,24.14017094017094,-50.979242979242976,84.56556776556776,-0.173828125,2.08447265625,-0.07373046875,-49.1943359375,-250.0,-25.054931640625,-80.66715506715506,21.44126984126984,21.741147741147742
33:58.907,0.69580078125,2.01513671875,0.322265625,-16.85333251953125,-26.4129638671875,82.1380615234375,-61.47496947496947,-14.694017094017093,-24.29010989010989,-1.70361328125,0.0302734375,1.0634765625,48.54583740234375,0.45013427734375,-17.547607421875,24.14017094017094,-50.979242979242976,84.56556776556776,0.5283203125,2.00439453125,-0.2080078125,27.38189697265625,-19.7296142578125,3.84521484375,-80.66715506715506,21.44126984126984,21.741147741147742
33:59.687,0.591796875,1.6201171875,0.8017578125,13.71002197265625,37.872314453125,-22.46856689453125,-61.47496947496947,-11.395360195360196,-0.4498168498168498,-1.72021484375,-0.20751953125,0.90283203125,-22.247314453125,22.72796630859375,-6.85882568359375,29.388034188034187,-49.030036630036626,96.1108669108669,0.21484375,1.65283203125,-0.2763671875,42.4346923828125,31.7840576171875,9.6588134765625,-85.01538461538462,7.646886446886446,-12.444932844932845
34:00.565,1.41796875,1.41455078125,0.5029296875,39.89410400390625,30.4107666015625,-2.3956298828125,-46.03125763125763,-24.44004884004884,-11.095482295482295,-1.65234375,0.107421875,0.93017578125,-36.81182861328125,-5.340576171875,19.0582275390625,11.995115995115995,-53.37826617826617,83.66593406593407,0.2958984375,2.49169921875,-0.16455078125,81.1309814453125,-20.51544189453125,-20.3857421875,-62.37460317460317,-5.997557997557998,72.42051282051281
34:01.394,1.41796875,1.41455078125,0.5029296875,15.5181884765625,10.0555419921875,-2.51007080078125,-20.69157509157509,-28.788278388278385,-2.6989010989010986,-1.82275390625,-0.11669921875,0.9560546875,-20.01953125,3.56292724609375,18.7225341796875,5.247863247863248,-60.425396825396824,72.42051282051281,0.4384765625,2.0048828125,0.31201171875,21.76666259765625,29.2510986328125,18.463134765625,-81.56678876678876,-16.793162393162394,17.39291819291819
34:02.174,1.0849609375,1.62451171875,0.658203125,15.5181884765625,10.0555419921875,-2.51007080078125,-20.69157509157509,-28.788278388278385,-2.6989010989010986,-1.82275390625,-0.11669921875,0.9560546875,-12.67242431640625,0.75531005859375,12.41302490234375,14.244200244200243,-64.47374847374847,77.81831501831502,0.28857421875,2.26953125,-0.3681640625,44.5556640625,0.7476806640625,-27.587890625,-62.82442002442002,-1.1995115995115995,69.72161172161172
34:03.051,1.58642578125,1.08544921875,0.4140625,24.60479736328125,45.7611083984375,-3.15093994140625,-22.79072039072039,-19.19218559218559,5.547741147741148,-1.45703125,0.1640625,1.22021484375,-12.67242431640625,0.75531005859375,12.41302490234375,9.146275946275946,-68.82197802197803,77.36849816849816,0.28857421875,2.26953125,-0.3681640625,44.5556640625,0.7476806640625,-27.587890625,-76.91868131868132,-2.548962148962149,33.13650793650793
34:03.831,0.884765625,1.82861328125,0.84521484375,-15.533447265625,-26.6876220703125,-0.9613037109375,-9.296214896214895,-26.08937728937729,11.245421245421245,-1.56884765625,-0.34033203125,1.04833984375,43.5028076171875,7.69805908203125,-30.29632568359375,9.146275946275946,-68.82197802197803,77.36849816849816,0.37939453125,1.630859375,0.6455078125,40.8172607421875,28.5797119140625,7.91168212890625,-76.91868131868132,-2.548962148962149,33.13650793650793
34:04.660,1.1103515625,1.595703125,0.7998046875,17.84515380859375,-112.091064453125,-96.099853515625,-19.64200244200244,-18.44249084249084,0.14993894993894993,-1.666015625,-0.1982421875,0.0224609375,-2.7923583984375,-17.31109619140625,-17.40264892578125,10.045909645909646,-70.77118437118438,72.27057387057387,0.38037109375,2.3115234375,-0.47216796875,-250.0,53.3294677734375,-51.50604248046875,-23.84029304029304,1.799267399267399,78.86788766788767
34:05.489,0.7490234375,1.66650390625,0.37451171875,-4.4403076171875,-35.60638427734375,113.24310302734375,-15.893528693528692,-18.59242979242979,2.998778998778999,-1.4775390625,0.1533203125,1.13671875,7.4615478515625,-1.3885498046875,9.0484619140625,3.1487179487179486,-70.77118437118438,66.27301587301586,0.35986328125,2.625,-0.16650390625,101.23443603515625,-24.7344970703125,-16.0064697265625,-57.57655677655677,10.945543345543346,16.793162393162394
34:06.416,0.7490234375,1.66650390625,0.37451171875,-15.19012451171875,-3.85284423828125,23.3001708984375,0.14993894993894993,-20.54163614163614,13.044688644688645,-2.357421875,0.109375,1.447265625,0.14495849609375,-9.25445556640625,10.38360595703125,9.746031746031745,-76.31892551892551,71.97069597069597,0.4365234375,2.14794921875,0.2666015625,42.13714599609375,-68.10760498046875,7.40814208984375,-67.92234432234432,-5.847619047619047,37.33479853479853
34:07.634,0.8408203125,1.97314453125,0.28857421875,-65.1702880859375,-125.8697509765625,-27.07672119140625,-15.293772893772893,-13.194627594627594,-8.246642246642246,-1.619140625,-0.1650390625,1.16748046875,72.73101806640625,7.92694091796875,-70.50323486328125,10.945543345543346,-79.01782661782661,67.92234432234432,-0.62548828125,2.31103515625,0.33349609375,-77.850341796875,-250.0,93.54400634765625,-1.4993894993894994,-9.895970695970696,54.727716727716725
34:08.463,0.8408203125,1.97314453125,0.28857421875,-7.9193115234375,-16.2353515625,31.63909912109375,-25.33968253968254,-8.096703296703296,-28.93821733821734,-1.56494140625,0.06103515625,1.25390625,52.4749755859375,-5.1116943359375,-37.872314453125,0.0,-76.01904761904761,58.326251526251525,0.5478515625,1.99755859375,-0.265625,1.0833740234375,-31.280517578125,10.55908203125,-10.195848595848595,24.88986568986569,4.048351648351648
34:09.437,0.6904296875,1.80712890625,0.419921875,-8.44573974609375,-2.655029296875,7.95745849609375,-25.489621489621488,3.1487179487179486,-27.288888888888888,-1.61669921875,-0.27001953125,0.92578125,16.2811279296875,10.58197021484375,-19.85931396484375,-1.3494505494505493,-68.82197802197803,39.883760683760684,0.62890625,1.58544921875,-1.068359375,34.027099609375,-52.84881591796875,1.4190673828125,9.296214896214895,47.68058608058608,47.380708180708176
34:10.315,0.599609375,1.5458984375,0.60693359375,-8.44573974609375,-2.655029296875,7.95745849609375,-28.338461538461537,8.546520146520146,-21.14139194139194,-1.9443359375,0.2880859375,1.60693359375,-5.77545166015625,-1.7547607421875,-13.63372802734375,11.395360195360196,-63.27423687423687,32.386813186813185,0.1123046875,0.98193359375,0.00048828125,-56.14471435546875,48.9349365234375,22.07183837890625,-73.32014652014652,36.435164835164834,-18.59242979242979
34:11.144,0.7783203125,2.009765625,0.5986328125,2.8076171875,1.251220703125,-6.37054443359375,-28.338461538461537,8.546520146520146,-21.14139194139194,-1.9443359375,0.2880859375,1.60693359375,-7.32421875,-11.0626220703125,13.641357421875,15.893528693528692,-60.57533577533577,42.73260073260073,0.1123046875,0.98193359375,0.00048828125,52.154541015625,-5.9814453125,-10.59722900390625,-42.88253968253968,35.985347985347985,-12.444932844932845
34:12.070,1.00732421875,2.0732421875,0.2158203125,19.47021484375,87.371826171875,44.5556640625,-34.78583638583638,5.097924297924298,-19.64200244200244,-1.77099609375,-0.16357421875,1.03125,-57.342529296875,-0.0762939453125,39.1082763671875,16.64322344322344,-61.624908424908426,46.63101343101343,0.419921875,1.98779296875,0.1005859375,-25.29144287109375,-108.52813720703125,24.10888671875,-40.63345543345543,36.285225885225884,4.648107448107448
34:13.045,0.67724609375,1.63037109375,0.8447265625,22.064208984375,43.5028076171875,-18.59283447265625,-25.639560439560437,10.495726495726496,-1.6493284493284492,-1.55126953125,-0.23681640625,1.01953125,-57.342529296875,-0.0762939453125,39.1082763671875,15.143833943833943,-56.227106227106226,48.43028083028083,1.39892578125,4.451171875,7.999755859375,88.52386474609375,-111.65618896484375,15.51055908203125,-80.21733821733821,32.836630036630034,-14.694017094017093
34:14.069,1.0400390625,1.7470703125,0.6142578125,-13.34381103515625,-6.85882568359375,-46.5240478515625,-44.08205128205128,5.997557997557998,-28.638339438339436,-1.61474609375,0.22119140625,1.2802734375,6.0882568359375,1.190185546875,-15.19775390625,16.193406593406593,-53.228327228327224,61.774847374847376,0.3154296875,1.8095703125,-0.4931640625,88.52386474609375,-111.65618896484375,15.51055908203125,-46.63101343101343,45.58144078144078,-33.58632478632479
34:14.897,0.66748046875,1.41552734375,0.42919921875,-15.32745361328125,-28.4423828125,46.01287841796875,-59.975579975579976,1.6493284493284492,-34.186080586080585,-1.41015625,0.38623046875,0.38671875,-17.15087890625,2.55584716796875,5.2947998046875,16.193406593406593,-53.228327228327224,61.774847374847376,0.47216796875,2.0166015625,0.20166015625,35.82763671875,-17.63153076171875,1.434326171875,-46.63101343101343,45.58144078144078,-33.58632478632479
34:15.824,0.849609375,1.52978515625,0.3984375,52.29949951171875,98.4344482421875,18.12744140625,-73.17020757020757,-13.494505494505495,-69.12185592185592,-1.4560546875,0.09912109375,0.8857421875,-69.29779052734375,-17.34161376953125,73.75335693359375,-2.548962148962149,-46.63101343101343,61.02515262515262,1.537109375,2.12451171875,-0.0986328125,-128.51715087890625,135.87188720703125,-2.7313232421875,-78.71794871794872,27.13894993894994,-14.694017094017093
34:16.847,0.810546875,2.10107421875,0.2783203125,25.177001953125,34.03472900390625,110.67962646484375,-56.377045177045176,-7.347008547008547,-17.242979242979242,-1.39404296875,0.3662109375,1.359375,-21.9879150390625,-11.58905029296875,14.58740234375,-2.548962148962149,-46.63101343101343,61.02515262515262,-0.12060546875,2.24755859375,-0.00390625,32.3028564453125,-12.3138427734375,-53.07769775390625,-78.71794871794872,27.13894993894994,-14.694017094017093
34:17.627,0.85986328125,2.2919921875,0.57421875,26.336669921875,30.00640869140625,30.792236328125,-56.07716727716728,-25.03980463980464,-22.94065934065934,-1.99365234375,0.162109375,1.56298828125,-42.4957275390625,25.146484375,46.11968994140625,1.3494505494505493,-62.074725274725274,94.76141636141635,0.32373046875,1.931640625,0.51123046875,37.07122802734375,22.0489501953125,10.24627685546875,-75.86910866910867,24.589987789987788,-20.99145299145299
34:18.456,0.85986328125,2.2919921875,0.57421875,-3.44085693359375,7.48443603515625,5.1727294921875,-67.62246642246642,-17.39291819291819,1.4993894993894994,-1.4248046875,0.18310546875,0.70458984375,-15.167236328125,-15.76995849609375,2.7313232421875,28.488400488400487,-50.979242979242976,101.20879120879121,0.1376953125,1.8818359375,-0.056640625,-180.29022216796875,27.5115966796875,41.20635986328125,-97.01050061050061,6.297435897435897,17.242979242979242
34:19.236,1.04150390625,1.41162109375,0.45947265625,-3.44085693359375,7.48443603515625,5.1727294921875,-67.62246642246642,-17.39291819291819,1.4993894993894994,-1.4248046875,0.18310546875,0.70458984375,-16.44134521484375,-9.796142578125,12.0849609375,9.895970695970696,-57.42661782661782,83.66593406593407,0.46826171875,2.00732421875,0.2060546875,43.1671142578125,-24.96337890625,1.91497802734375,-103.45787545787546,1.1995115995115995,-28.488400488400487
34:20.114,0.91748046875,1.5888671875,0.34521484375,6.805419921875,11.94000244140625,59.295654296875,-51.87887667887668,-20.69157509157509,-20.24175824175824,-1.73193359375,0.3681640625,0.82373046875,-16.44134521484375,-9.796142578125,12.0849609375,8.996336996336996,-67.47252747252747,77.96825396825396,0.46826171875,2.00732421875,0.2060546875,43.1671142578125,-24.96337890625,1.91497802734375,-53.82808302808303,1.0495726495726496,67.02271062271062
34:20.943,1.07275390625,1.5146484375,0.38330078125,-14.739990234375,-39.9017333984375,-67.1234130859375,-32.686691086691084,-19.19218559218559,-4.348229548229548,-1.46044921875,-0.0341796875,1.01123046875,-11.57379150390625,10.24627685546875,-17.72308349609375,8.996336996336996,-67.47252747252747,77.96825396825396,-0.08544921875,2.58251953125,-0.1845703125,-166.2445068359375,30.181884765625,-27.91595458984375,-53.82808302808303,1.0495726495726496,67.02271062271062
34:21.723,1.099609375,1.39990234375,0.40771484375,-4.57000732421875,-23.712158203125,8.64410400390625,-13.794383394383393,-21.14139194139194,4.348229548229548,-1.36181640625,0.3515625,1.107421875,26.14593505859375,3.74603271484375,-17.3492431640625,7.496947496947497,-74.06984126984126,75.86910866910867,0.55712890625,2.06884765625,-0.353515625,58.3953857421875,-22.918701171875,-1.8463134765625,-37.03492063492063,5.247863247863248,71.67081807081807
34:22.649,1.02734375,1.9306640625,0.78662109375,1.983642578125,-7.49969482421875,-47.2869873046875,-16.64322344322344,-21.14139194139194,-8.546520146520146,-1.52685546875,-0.048828125,1.32275390625,-12.359619140625,-6.89697265625,9.83428955078125,-0.7496947496947497,-74.81953601953602,68.07228327228327,0.49169921875,2.21142578125,0.34375,30.0140380859375,-91.033935546875,27.313232421875,-30.887423687423688,-2.848840048840049,54.577777777777776
34:23.478,1.02734375,1.9306640625,0.78662109375,-1.52587890625,25.35247802734375,-6.16455078125,-24.739926739926737,-16.793162393162394,-18.892307692307693,-1.4541015625,0.0595703125,0.75830078125,1.28173828125,-2.1514892578125,-2.58636474609375,3.2986568986568985,-76.91868131868132,70.02148962148962,0.33251953125,2.5390625,-0.80615234375,-223.6785888671875,149.749755859375,15.63262939453125,-52.928449328449325,1.1995115995115995,76.16898656898657
34:24.355,1.01806640625,1.38037109375,0.6572265625,-1.52587890625,25.35247802734375,-6.16455078125,-13.794383394383393,-17.093040293040293,-7.197069597069596,-1.58203125,0.03857421875,1.185546875,17.27294921875,-12.30621337890625,-11.03973388671875,5.847619047619047,-80.21733821733821,68.97191697191697,0.552734375,2.01416015625,-0.09033203125,14.6942138671875,-19.866943359375,0.9307861328125,-33.58632478632479,-8.396581196581197,72.12063492063491
34:25.281,0.7177734375,2.02001953125,0.4453125,-18.2342529296875,-16.19720458984375,26.66473388671875,-13.794383394383393,-17.093040293040293,-7.197069597069596,-1.87548828125,-0.16064453125,0.84228515625,70.88470458984375,18.5546875,-51.6510009765625,14.993894993894994,-76.91868131868132,72.87032967032967,0.59765625,1.86328125,-0.5048828125,-36.0107421875,-80.13916015625,60.3179931640625,6.297435897435897,-3.1487179487179486,73.02026862026862
34:26.061,0.5400390625,1.9267578125,0.71923828125,-36.72027587890625,-52.8717041015625,-4.40216064453125,-8.246642246642246,-12.145054945054945,5.997557997557998,-1.87548828125,-0.16064453125,0.84228515625,80.07049560546875,21.4996337890625,-39.9932861328125,9.746031746031745,-73.02026862026862,61.774847374847376,0.59765625,1.86328125,-0.5048828125,31.55517578125,-22.97210693359375,7.8125,0.14993894993894993,24.739926739926737,34.336019536019535
34:26.939,0.810546875,1.62451171875,0.4013671875,-18.39447021484375,-39.75677490234375,-13.73291015625,-13.494505494505495,-11.845177045177044,-14.694017094017093,-1.5302734375,0.18408203125,1.12255859375,80.07049560546875,21.4996337890625,-39.9932861328125,9.746031746031745,-73.02026862026862,61.774847374847376,0.5771484375,2.0341796875,-0.22412109375,31.55517578125,-22.97210693359375,7.8125,0.14993894993894993,24.739926739926737,34.336019536019535
34:27.719,0.7236328125,1.5576171875,0.736328125,2.5634765625,-2.0294189453125,-127.044677734375,-21.59120879120879,3.1487179487179486,-24.88986568986569,-1.51025390625,-0.29150390625,0.95556640625,0.7781982421875,-0.3509521484375,8.0413818359375,0.0,-67.17264957264958,39.28400488400488,0.95947265625,1.6640625,0.3017578125,67.81005859375,119.60601806640625,39.8712158203125,-2.848840048840049,46.78095238095238,48.28034188034188
34:28.499,0.859375,1.373046875,0.76611328125,20.99609375,-76.7822265625,-25.03204345703125,-25.78949938949939,10.945543345543346,-14.694017094017093,-1.52587890625,-0.03662109375,0.4833984375,-28.55682373046875,-15.3961181640625,7.75146484375,14.394139194139193,-63.873992673992674,34.036141636141636,-0.25390625,2.263671875,-0.29052734375,-250.0,60.79864501953125,26.26800537109375,-70.77118437118438,36.88498168498168,-29.687912087912085
34:29.279,0.859375,1.373046875,0.76611328125,20.99609375,-76.7822265625,-25.03204345703125,-25.78949938949939,10.945543345543346,-14.694017094017093,-1.603515625,0.21728515625,1.02587890625,42.7703857421875,5.767822265625,-23.27728271484375,17.093040293040293,-62.224664224664224,46.78095238095238,0.42138671875,2.0244140625,-0.03369140625,75.88958740234375,14.41192626953125,-1.39617919921875,-58.026373626373626,32.686691086691084,-5.097924297924298
34:30.059,0.84619140625,1.59814453125,0.25,-7.1868896484375,-34.027099609375,5.859375,-34.036141636141636,4.348229548229548,-16.943101343101343,-1.603515625,0.21728515625,1.02587890625,42.7703857421875,5.767822265625,-23.27728271484375,17.992673992673993,-60.57533577533577,48.13040293040293,0.42138671875,2.0244140625,-0.03369140625,75.88958740234375,14.41192626953125,-1.39617919921875,-32.386813186813185,30.437606837606836,26.689133089133087
34:30.888,0.0947265625,1.6611328125,0.8896484375,-16.5863037109375,-12.0697021484375,29.27398681640625,-29.687912087912085,4.1982905982905985,-10.345787545787545,-1.55859375,-0.3779296875,1.19677734375,-22.54486083984375,-3.02886962890625,4.6844482421875,17.992673992673993,-60.57533577533577,48.13040293040293,0.62939453125,1.97119140625,0.40966796875,22.65167236328125,-57.7239990234375,17.9443359375,-32.386813186813185,30.437606837606836,26.689133089133087
34:31.668,0.626953125,1.7080078125,0.43603515625,-15.533447265625,-89.2333984375,-72.7386474609375,-39.583882783882785,2.848840048840049,-24.29010989010989,-1.4140625,-0.20947265625,0.40087890625,30.8685302734375,-2.37274169921875,-16.632080078125,16.943101343101343,-61.32503052503052,47.380708180708176,-0.66845703125,2.50439453125,-0.1982421875,-250.0,-1.85394287109375,14.33563232421875,-59.975579975579976,31.787057387057384,-3.1487179487179486
34:32.448,0.626953125,1.7080078125,0.43603515625,-18.0206298828125,-15.29693603515625,72.5860595703125,-50.979242979242976,0.4498168498168498,-31.637118437118435,-1.46142578125,0.2080078125,0.93212890625,7.07244873046875,0.091552734375,-14.97650146484375,13.494505494505495,-57.12673992673992,54.877655677655675,0.4833984375,2.0859375,-0.2265625,61.767578125,-22.75848388671875,-3.753662109375,-61.02515262515262,38.234432234432234,-32.536752136752135
34:33.228,0.43359375,1.86669921875,0.3330078125,-18.0206298828125,-15.29693603515625,72.5860595703125,-50.979242979242976,0.4498168498168498,-31.637118437118435,-1.599609375,-0.16845703125,1.2666015625,-100.36468505859375,-17.43316650390625,74.1119384765625,12.744810744810744,-47.98046398046398,63.724053724053725,0.26513671875,2.013671875,0.13330078125,-19.32525634765625,20.01953125,28.2440185546875,-81.56678876678876,43.78217338217338,-47.83052503052503
34:34.056,1.02685546875,1.82080078125,0.64306640625,28.99932861328125,-0.8544921875,39.306640625,-72.72039072039071,-6.147496947496947,-52.17875457875458,-1.599609375,-0.16845703125,1.2666015625,-17.34161376953125,6.03485107421875,10.8642578125,-1.4993894993894994,-51.429059829059824,80.81709401709402,0.26513671875,2.013671875,0.13330078125,57.19757080078125,76.84326171875,-30.89141845703125,-86.96459096459097,24.88986568986569,-10.195848595848595
34:34.934,0.78466796875,2.1201171875,0.5546875,72.3114013671875,1.06048583984375,15.106201171875,-58.326251526251525,-20.69157509157509,-23.99023199023199,-1.71044921875,0.14794921875,1.1484375,-17.34161376953125,6.03485107421875,10.8642578125,-1.4993894993894994,-51.429059829059824,80.81709401709402,0.16015625,2.1953125,-0.67822265625,57.19757080078125,76.84326171875,-30.89141845703125,-86.96459096459097,24.88986568986569,-10.195848595848595
34:35.714,0.8125,2.10888671875,0.69482421875,22.34649658203125,27.28271484375,16.05987548828125,-64.92356532356533,-32.836630036630034,-20.841514041514042,-1.76025390625,0.09423828125,1.01025390625,9.979248046875,-42.1905517578125,9.857177734375,19.64200244200244,-55.32747252747252,103.0080586080586,0.49853515625,1.96435546875,0.25830078125,59.28802490234375,-27.87017822265625,-1.0986328125,-82.31648351648352,35.38559218559219,-27.588766788766787
34:36.543,0.54638671875,1.857421875,0.52685546875,16.5557861328125,39.89410400390625,-42.0684814453125,-54.577777777777776,-17.39291819291819,-20.39169719169719,-1.66015625,-0.2470703125,1.0068359375,-25.21514892578125,11.962890625,9.58251953125,12.294993894993894,-55.77728937728938,82.91623931623931,-0.41796875,2.4619140625,-0.22900390625,84.197998046875,10.26153564453125,7.720947265625,-79.61758241758241,-11.095482295482295,50.67936507936508
34:37.323,0.54638671875,1.857421875,0.52685546875,16.5557861328125,39.89410400390625,-42.0684814453125,-40.033699633699634,-15.143833943833943,-14.544078144078144,-1.76318359375,0.47900390625,0.9931640625,8.76617431640625,4.21905517578125,-6.3323974609375,8.546520146520146,-64.62368742368741,72.27057387057387,0.75732421875,2.14013671875,-0.50927734375,94.1925048828125,-79.315185546875,20.08819580078125,-41.38315018315018,5.547741147741148,75.11941391941392
34:38.151,0.875,2.10302734375,0.1044921875,-6.7901611328125,-37.29248046875,-57.35015869140625,-40.033699633699634,-15.143833943833943,-14.544078144078144,-1.76318359375,0.47900390625,0.9931640625,42.33551025390625,17.90618896484375,-9.63592529296875,-5.397802197802197,-69.57167277167277,57.42661782661782,0.75732421875,2.14013671875,-0.50927734375,53.58123779296875,13.0767822265625,-0.4425048828125,-64.17387057387057,6.297435897435897,21.741147741147742
34:38.931,-0.0830078125,1.72314453125,0.01171875,17.1966552734375,-86.42578125,12.908935546875,-44.08205128205128,-8.246642246642246,-39.883760683760684,-1.505859375,0.26220703125,0.4248046875,42.33551025390625,17.90618896484375,-9.63592529296875,-5.397802197802197,-69.57167277167277,57.42661782661782,0.41943359375,2.09375,0.13916015625,53.58123779296875,13.0767822265625,-0.4425048828125,-64.17387057387057,6.297435897435897,21.741147741147742
34:39.711,0.24462890625,1.75537109375,1.46875,-83.35113525390625,17.43316650390625,14.85443115234375,-39.433943833943836,-2.6989010989010986,-52.32869352869353,-1.77392578125,-0.4775390625,0.5048828125,8.09478759765625,16.15142822265625,-15.98358154296875,-5.547741147741148,-69.42173382173382,50.22954822954823,-0.10888671875,1.8798828125,0.046875,-107.3455810546875,-9.7808837890625,37.506103515625,-29.088156288156288,-5.997557997557998,49.030036630036626
34:40.491,0.47021484375,1.09912109375,1.71630859375,-12.22991943359375,-5.85174560546875,-1.51824951171875,-39.733821733821735,-3.4485958485958483,-37.03492063492063,-1.93505859375,0.3759765625,0.14501953125,7.4310302734375,-6.32476806640625,1.79290771484375,-2.548962148962149,-62.37460317460317,39.583882783882785,0.32666015625,2.0556640625,-0.11572265625,-13.8092041015625,-1.13677978515625,-0.67901611328125,-34.036141636141636,11.845177045177044,23.690354090354088
34:41.271,0.47021484375,1.09912109375,1.71630859375,-12.22991943359375,-5.85174560546875,-1.51824951171875,-38.53431013431013,-3.2986568986568985,-0.7496947496947497,-1.81005859375,0.65966796875,0.33154296875,-20.24078369140625,-21.61407470703125,-3.08990478515625,-14.394139194139193,-64.77362637362637,13.494505494505495,0.00341796875,2.064453125,0.00732421875,28.1524658203125,0.91552734375,-44.708251953125,-38.084493284493284,12.444932844932845,15.143833943833943
34:42.100,1.23486328125,1.21240234375,1.09716796875,134.17816162109375,-40.7867431640625,-101.7608642578125,-38.53431013431013,-3.2986568986568985,-0.7496947496947497,-1.81005859375,0.65966796875,0.33154296875,-21.11053466796875,-3.0517578125,18.7225341796875,-15.593650793650793,-65.67326007326007,19.19218559218559,0.00341796875,2.064453125,0.00732421875,71.2738037109375,6.72149658203125,6.927490234375,-41.533089133089135,15.143833943833943,12.444932844932845
34:42.978,0.78662109375,2.9130859375,0.67578125,3.753662109375,17.1356201171875,-26.18408203125,-40.93333333333333,-4.348229548229548,-29.687912087912085,-2.67236328125,-0.1259765625,1.64404296875,-21.11053466796875,-3.0517578125,18.7225341796875,-15.593650793650793,-65.67326007326007,19.19218559218559,0.5146484375,2.1171875,0.20654296875,71.2738037109375,6.72149658203125,6.927490234375,-41.533089133089135,15.143833943833943,12.444932844932845
34:43.806,0.611328125,1.98876953125,0.85498046875,36.6668701171875,-63.16375732421875,-80.20782470703125,-17.992673992673993,-18.59242979242979,-3.8984126984126983,-1.74853515625,-0.140625,0.984375,4.02069091796875,14.4805908203125,-20.74432373046875,4.048351648351648,-74.36971916971916,66.12307692307692,-0.33349609375,2.29541015625,-0.94970703125,-167.17529296875,-158.69140625,-13.214111328125,-52.928449328449325,-3.8984126984126983,70.62124542124542
34:44.733,0.67626953125,1.80810546875,0.2666015625,-85.79254150390625,-161.12518310546875,-130.1116943359375,-9.895970695970696,-13.644444444444444,5.997557997557998,-1.6630859375,0.23779296875,0.80908203125,109.4512939453125,-0.05340576171875,-62.3931884765625,10.645665445665445,-75.41929181929181,68.67203907203907,0.173828125,2.1025390625,0.05712890625,-36.0870361328125,-137.969970703125,-19.82879638671875,-5.997557997557998,-2.399023199023199,34.93577533577533
34:45.561,0.8310546875,1.80810546875,0.52490234375,1.47247314453125,-0.42724609375,26.9775390625,-15.443711843711844,-14.544078144078144,-19.941880341880342,-1.76123046875,0.078125,0.91943359375,29.8309326171875,-11.71112060546875,1.06048583984375,-4.648107448107448,-71.37094017094017,46.48107448107448,0.49658203125,2.033203125,-0.0224609375,27.6641845703125,-10.223388671875,3.4942626953125,-16.49328449328449,5.847619047619047,11.995115995115995
34:46.439,0.8310546875,1.80810546875,0.52490234375,12.451171875,26.71051025390625,-49.61395263671875,-19.49206349206349,10.945543345543346,-14.694017094017093,-1.615234375,-0.31982421875,0.9716796875,-36.7584228515625,24.58953857421875,9.86480712890625,8.396581196581197,-64.77362637362637,35.985347985347985,0.2890625,1.75146484375,-0.19189453125,-32.64617919921875,19.02008056640625,2.7618408203125,-4.048351648351648,55.32747252747252,36.88498168498168
34:47.268,0.7021484375,1.54052734375,0.6904296875,12.451171875,26.71051025390625,-49.61395263671875,-26.539194139194137,13.044688644688645,-14.094261294261294,-1.5302734375,0.1884765625,1.1552734375,36.468505859375,7.87353515625,-16.815185546875,15.893528693528692,-64.92356532356533,40.63345543345543,0.44091796875,2.0146484375,-0.0595703125,43.5943603515625,10.44464111328125,-1.36566162109375,-69.72161172161172,36.435164835164834,-19.941880341880342
34:48.194,0.69970703125,1.62744140625,0.57958984375,-1.01470947265625,11.43646240234375,75.50048828125,-26.539194139194137,13.044688644688645,-14.094261294261294,-1.5302734375,0.1884765625,1.1552734375,-16.29638671875,9.9945068359375,5.40924072265625,13.794383394383393,-64.02393162393162,43.03247863247863,0.44091796875,2.0146484375,-0.0595703125,-96.0845947265625,-16.13616943359375,46.65374755859375,-67.77240537240537,34.485958485958484,-32.386813186813185
34:49.023,0.64404296875,1.7392578125,0.74462890625,14.1143798828125,47.23358154296875,1.0528564453125,-34.635897435897434,2.0991452991452992,-18.44249084249084,-1.6845703125,-0.23046875,1.03369140625,-16.29638671875,9.9945068359375,5.40924072265625,20.39169719169719,-61.17509157509157,47.230769230769226,1.52392578125,2.0322265625,-1.42431640625,-96.0845947265625,-16.13616943359375,46.65374755859375,-55.77728937728938,29.388034188034187,19.64200244200244
34:49.852,0.83984375,1.810546875,0.603515625,-7.98797607421875,3.33404541015625,-5.56182861328125,-33.43638583638584,5.397802197802197,-14.244200244200243,-1.74072265625,0.27587890625,1.06591796875,-6.6986083984375,-9.613037109375,-2.32696533203125,20.39169719169719,-61.17509157509157,47.230769230769226,-0.00048828125,1.3193359375,1.20068359375,-38.94805908203125,-48.614501953125,-18.1121826171875,-55.77728937728938,29.388034188034187,19.64200244200244
34:50.729,1.15283203125,2.11669921875,0.32275390625,8.8043212890625,26.17645263671875,-19.00482177734375,-35.68547008547009,8.546520146520146,-21.89108669108669,-2.0751953125,0.01171875,1.19140625,1.30462646484375,17.0440673828125,34.881591796875,14.993894993894994,-59.22588522588522,40.18363858363858,0.58447265625,1.97412109375,0.240234375,36.7889404296875,-3.082275390625,-11.05499267578125,-40.33357753357753,28.03858363858364,14.394139194139193
34:51.606,0.5927734375,1.40576171875,0.62158203125,17.73834228515625,41.08428955078125,-20.01190185546875,-31.337240537240536,8.696459096459096,-11.095482295482295,-1.6044921875,-0.216796875,0.8994140625,-44.65484619140625,8.52203369140625,25.79498291015625,16.64322344322344,-60.275457875457874,44.98168498168498,1.4052734375,3.21337890625,4.26123046875,18.63861083984375,-88.8824462890625,11.28387451171875,-50.829304029304026,35.985347985347985,1.1995115995115995
34:52.435,0.5927734375,1.40576171875,0.62158203125,-21.78192138671875,-9.1400146484375,-13.81683349609375,-44.83174603174603,-4.048351648351648,-27.288888888888888,-2.35986328125,0.044921875,1.33349609375,-6.64520263671875,58.72344970703125,-30.12847900390625,13.794383394383393,-55.92722832722833,43.33235653235653,0.15478515625,0.99951171875,0.1337890625,-64.7430419921875,-36.53717041015625,19.5770263671875,-81.26691086691086,35.38559218559219,-14.694017094017093
34:53.264,0.79052734375,1.9853515625,0.4189453125,-21.78192138671875,-9.1400146484375,-13.81683349609375,-44.83174603174603,-4.048351648351648,-27.288888888888888,-1.98046875,0.0009765625,1.0478515625,-30.67779541015625,29.7088623046875,25.77972412109375,13.794383394383393,-47.230769230769226,59.52576312576312,0.52099609375,1.98095703125,0.11767578125,17.17376708984375,-20.263671875,-4.92095947265625,-46.78095238095238,52.17875457875458,-31.337240537240536
34:54.483,1.29150390625,1.74072265625,0.54345703125,11.8560791015625,119.873046875,17.1661376953125,-53.82808302808303,-23.39047619047619,-15.593650793650793,-1.6669921875,-0.080078125,1.10546875,-131.2255859375,10.97869873046875,88.82904052734375,-3.7484737484737485,-46.93089133089133,67.77240537240537,-0.0791015625,2.05224609375,-0.291015625,-9.86480712890625,52.57415771484375,32.3028564453125,-89.51355311355312,17.692796092796094,-4.947985347985348
34:55.409,1.29150390625,1.74072265625,0.54345703125,49.13330078125,140.15960693359375,76.2176513671875,-52.928449328449325,2.848840048840049,-11.395360195360196,-1.9140625,0.2392578125,1.20654296875,-55.18341064453125,-31.402587890625,30.7769775390625,-1.6493284493284492,-47.53064713064713,62.37460317460317,-0.04931640625,1.38720703125,-0.02978515625,-46.5850830078125,209.1522216796875,-46.7071533203125,-79.91746031746031,21.14139194139194,-16.64322344322344
34:56.238,0.36767578125,2.17138671875,1.06103515625,49.13330078125,140.15960693359375,76.2176513671875,-52.928449328449325,2.848840048840049,-11.395360195360196,-1.8408203125,0.00244140625,0.9248046875,-22.04132080078125,39.3524169921875,19.3023681640625,18.142612942612942,-57.87643467643468,103.75775335775336,0.59130859375,1.99267578125,0.087890625,32.1807861328125,-18.88275146484375,-5.31768798828125,-70.62124542124542,15.743589743589743,-34.78583638583638
34:57.067,0.7705078125,1.65185546875,0.42138671875,6.40106201171875,45.7611083984375,31.24237060546875,-49.030036630036626,-36.435164835164834,24.739926739926737,-1.8408203125,0.00244140625,0.9248046875,-22.04132080078125,39.3524169921875,19.3023681640625,31.787057387057384,-47.68058608058608,89.51355311355312,0.59130859375,1.99267578125,0.087890625,32.1807861328125,-18.88275146484375,-5.31768798828125,-98.21001221001221,-1.1995115995115995,1.9492063492063492
34:57.846,0.70654296875,1.7880859375,0.47412109375,13.7176513671875,85.1898193359375,47.0123291015625,-70.47130647130646,-2.399023199023199,-17.992673992673993,-1.5458984375,-0.18505859375,1.0859375,-39.520263671875,9.429931640625,20.93505859375,31.787057387057384,-47.68058608058608,89.51355311355312,0.7431640625,1.6181640625,-1.32958984375,58.29620361328125,28.2135009765625,22.52197265625,-98.21001221001221,-1.1995115995115995,1.9492063492063492
34:58.822,0.9453125,1.5458984375,0.86572265625,10.4522705078125,3.62396240234375,-19.53125,-43.482295482295484,-20.69157509157509,-10.945543345543346,-1.46484375,0.1826171875,1.2060546875,16.12091064453125,7.56072998046875,-16.05224609375,10.045909645909646,-60.87521367521367,80.81709401709402,1.12451171875,2.72998046875,0.39599609375,120.697021484375,-71.2738037109375,-6.988525390625,-45.58144078144078,1.799267399267399,91.01294261294261
34:59.650,0.60986328125,1.80224609375,0.826171875,-0.67138671875,-46.4019775390625,-17.57049560546875,-20.99145299145299,-19.49206349206349,9.296214896214895,-1.6279296875,-0.3994140625,1.2265625,2.35748291015625,-17.02880859375,5.79071044921875,5.697680097680098,-67.47252747252747,73.02026862026862,0.50146484375,2.03125,0.37939453125,38.27667236328125,9.6282958984375,23.26202392578125,-73.32014652014652,1.3494505494505493,14.244200244200243
35:00.430,0.60986328125,1.80224609375,0.826171875,-4.0283203125,-22.14813232421875,10.19287109375,-20.54163614163614,-14.993894993894994,6.447374847374848,-1.4697265625,-0.16748046875,0.48291015625,-11.25335693359375,-7.4615478515625,4.302978515625,8.996336996336996,-71.52087912087912,73.02026862026862,-0.05712890625,2.07666015625,-0.21630859375,-214.37835693359375,80.11627197265625,1.24359130859375,-25.489621489621488,3.2986568986568985,72.42051282051281
35:01.308,0.58203125,1.537109375,0.94677734375,-4.0283203125,-22.14813232421875,10.19287109375,-16.49328449328449,-15.593650793650793,8.246642246642246,-1.5966796875,-0.029296875,1.017578125,20.3857421875,-15.37322998046875,-8.9874267578125,3.1487179487179486,-72.27057387057387,69.87155067155066,0.4814453125,2.005859375,-0.0546875,62.347412109375,-5.89752197265625,-4.119873046875,-53.52820512820512,11.095482295482295,10.795604395604395
35:02.185,0.76416015625,2.205078125,0.248046875,-21.8353271484375,51.84173583984375,46.57745361328125,-16.49328449328449,-15.593650793650793,8.246642246642246,-1.5966796875,-0.029296875,1.017578125,-30.44891357421875,4.3182373046875,21.6522216796875,10.945543345543346,-75.71916971916971,71.07106227106227,-0.64794921875,2.89794921875,1.0087890625,34.43145751953125,218.14727783203125,-4.95147705078125,-50.07960927960928,-4.947985347985348,68.82197802197803
35:03.112,0.58349609375,1.85693359375,0.6826171875,11.6424560546875,69.45037841796875,49.1790771484375,-10.945543345543346,-17.093040293040293,6.447374847374848,-1.546875,-0.2197265625,1.01123046875,-30.44891357421875,4.3182373046875,21.6522216796875,14.544078144078144,-76.16898656898657,69.27179487179487,-0.64794921875,2.89794921875,1.0087890625,1.31988525390625,-95.97015380859375,-13.95416259765625,5.397802197802197,7.496947496947497,45.58144078144078
35:03.989,0.69189453125,1.9619140625,0.6904296875,-58.86077880859375,-103.729248046875,-102.569580078125,-13.344566544566543,-11.695238095238095,0.14993894993894993,-1.5595703125,-0.005859375,1.3203125,81.0699462890625,-14.5263671875,-47.00469970703125,14.544078144078144,-76.16898656898657,69.27179487179487,0.51171875,1.97607421875,-0.04833984375,24.1851806640625,-25.52032470703125,28.06854248046875,2.6989010989010986,4.798046398046398,51.429059829059824
35:05.159,0.791015625,2.1025390625,0.92333984375,-7.568359375,-15.95306396484375,31.83746337890625,-18.29255189255189,2.249084249084249,-19.34212454212454,-1.763671875,-0.35986328125,0.400390625,33.4320068359375,-28.86199951171875,-47.5616455078125,2.0991452991452992,-68.97191697191697,47.08083028083028,0.1376953125,2.20166015625,-0.091796875,-243.44635009765625,-60.72998046875,57.28912353515625,2.998778998778999,41.683028083028084,60.425396825396824
35:06.085,0.916015625,1.880859375,0.65283203125,-21.40045166015625,-56.671142578125,-32.27996826171875,-18.29255189255189,2.249084249084249,-19.34212454212454,-1.763671875,-0.35986328125,0.400390625,33.4320068359375,-28.86199951171875,-47.5616455078125,7.946764346764346,-66.42295482295482,32.98656898656898,0.1376953125,2.20166015625,-0.091796875,-243.44635009765625,-60.72998046875,57.28912353515625,13.044688644688645,49.030036630036626,48.58021978021978
35:06.865,0.5869140625,1.90185546875,0.240234375,-4.2724609375,27.3895263671875,107.91015625,-20.69157509157509,12.145054945054945,-23.09059829059829,-1.3662109375,0.123046875,1.025390625,-8.1939697265625,-3.2501220703125,3.83758544921875,7.946764346764346,-66.42295482295482,32.98656898656898,0.3447265625,2.23779296875,-0.4423828125,87.8448486328125,-4.87518310546875,-8.23974609375,13.044688644688645,49.030036630036626,48.58021978021978
35:07.694,0.3662109375,1.703125,1.01904296875,9.002685546875,36.17095947265625,30.64727783203125,-32.386813186813185,11.845177045177044,-21.741147741147742,-1.5537109375,-0.26611328125,1.11572265625,-11.94000244140625,1.10626220703125,14.373779296875,11.995115995115995,-62.97435897435897,38.084493284493284,0.36328125,2.025390625,0.58056640625,30.81512451171875,-69.000244140625,21.9268798828125,-46.03125763125763,38.53431013431013,-28.93821733821734
35:08.523,0.5712890625,1.53369140625,0.501953125,-3.47900390625,31.85272216796875,45.66192626953125,-35.08571428571428,6.897191697191697,-22.34090354090354,-1.55126953125,-0.3291015625,0.33935546875,-3.631591796875,-12.969970703125,12.85552978515625,15.893528693528692,-61.32503052503052,41.683028083028084,0.5263671875,2.43701171875,-0.76171875,-208.6334228515625,110.4583740234375,-20.3857421875,-38.53431013431013,33.73626373626374,27.288888888888888
35:09.400,0.5712890625,1.53369140625,0.501953125,-29.6173095703125,-55.5267333984375,4.75311279296875,-37.33479853479853,12.145054945054945,-21.44126984126984,-1.44921875,-0.0986328125,0.9755859375,37.6129150390625,-2.18963623046875,-27.2674560546875,21.14139194139194,-61.17509157509157,54.577777777777776,0.60546875,1.96533203125,-0.1923828125,51.59759521484375,-22.3388671875,4.70733642578125,-49.329914529914525,40.63345543345543,-12.145054945054945
35:10.278,0.6357421875,1.65283203125,0.4736328125,-29.6173095703125,-55.5267333984375,4.75311279296875,-37.33479853479853,12.145054945054945,-21.44126984126984,-1.41015625,-0.1611328125,1.02978515625,-19.6380615234375,10.10894775390625,19.53125,14.694017094017093,-56.97680097680097,55.47741147741147,0.84814453125,1.8251953125,0.25927734375,62.38555908203125,149.2767333984375,32.95135498046875,-66.57289377289376,34.485958485958484,-31.037362637362637
35:11.204,0.6533203125,1.60546875,0.80517578125,27.67181396484375,42.90008544921875,-13.5498046875,-52.47863247863248,1.1995115995115995,-27.588766788766787,-1.41015625,-0.1611328125,1.02978515625,-28.656005859375,-26.35955810546875,14.0838623046875,10.195848595848595,-47.98046398046398,61.924786324786325,0.84814453125,1.8251953125,0.25927734375,-118.91937255859375,84.8541259765625,-85.1593017578125,-89.21367521367522,20.99145299145299,-0.7496947496947497
35:12.033,1.0234375,1.72607421875,0.91259765625,2.044677734375,-45.00579833984375,-36.9873046875,-75.86910866910867,2.0991452991452992,-60.125518925518925,-1.6162109375,0.126953125,0.71630859375,-28.656005859375,-26.35955810546875,14.0838623046875,-2.998778998778999,-46.33113553113553,64.62368742368741,0.2783203125,1.61083984375,-0.28125,-118.91937255859375,84.8541259765625,-85.1593017578125,-77.21855921855922,28.188522588522588,-33.28644688644688
35:12.862,0.79052734375,2.08251953125,-0.1845703125,32.440185546875,126.6937255859375,12.50457763671875,-64.17387057387057,-10.795604395604395,-23.99023199023199,-1.68701171875,0.38818359375,0.91259765625,-116.058349609375,16.74652099609375,74.310302734375,-2.998778998778999,-46.33113553113553,64.62368742368741,0.1337890625,2.064453125,-0.1435546875,27.5421142578125,3.88336181640625,-21.81243896484375,-77.21855921855922,28.188522588522588,-33.28644688644688
35:13.690,0.6884765625,1.6357421875,0.6025390625,24.37591552734375,1.495361328125,-48.0499267578125,-64.17387057387057,-17.54285714285714,-30.737484737484735,-1.54345703125,-0.103515625,1.138671875,-64.8193359375,18.88275146484375,39.45159912109375,-3.4485958485958483,-54.577777777777776,87.56434676434677,-1.2578125,3.07666015625,0.56103515625,53.16162109375,57.373046875,6.2408447265625,-79.46764346764347,15.893528693528692,-19.64200244200244
35:14.519,0.97265625,2.6591796875,0.55810546875,2.87628173828125,-16.33453369140625,-111.21368408203125,-67.92234432234432,-10.945543345543346,3.4485958485958483,-2.16943359375,0.01611328125,1.4365234375,-17.913818359375,-12.847900390625,-17.0745849609375,34.485958485958484,-48.28034188034188,94.31159951159951,0.2041015625,0.91357421875,0.14892578125,-52.22320556640625,21.759033203125,-22.22442626953125,-81.86666666666666,-0.5997557997557997,62.97435897435897
35:15.299,0.97265625,2.6591796875,0.55810546875,2.87628173828125,-16.33453369140625,-111.21368408203125,-46.63101343101343,-19.64200244200244,-11.695238095238095,-1.58251953125,-0.0634765625,0.91748046875,24.65057373046875,-25.299072265625,-6.43157958984375,7.347008547008547,-55.32747252747252,74.96947496947497,0.4423828125,1.99609375,0.09814453125,46.1578369140625,-12.9241943359375,-2.08282470703125,-96.4107448107448,-0.4498168498168498,-40.93333333333333
35:16.177,0.365234375,2.02734375,0.10693359375,7.51495361328125,-44.0216064453125,-41.11480712890625,-46.63101343101343,-19.64200244200244,-11.695238095238095,-1.58251953125,-0.0634765625,0.91748046875,29.083251953125,3.173828125,-3.570556640625,7.347008547008547,-66.27301587301586,73.62002442002442,0.4423828125,1.99609375,0.09814453125,32.5469970703125,-81.11572265625,2.38037109375,-51.279120879120875,1.0495726495726496,55.47741147741147
35:16.957,-0.2900390625,1.93701171875,0.158203125,13.5498046875,-39.6270751953125,7.87353515625,-37.03492063492063,-15.743589743589743,-15.743589743589743,-2.06005859375,-0.4013671875,0.40283203125,29.083251953125,3.173828125,-3.570556640625,7.347008547008547,-66.27301587301586,73.62002442002442,1.294921875,2.314453125,1.57275390625,32.5469970703125,-81.11572265625,2.38037109375,-51.279120879120875,1.0495726495726496,55.47741147741147
35:17.737,0.7216796875,1.93359375,0.01123046875,-2.83050537109375,40.1763916015625,3.021240234375,-44.38192918192918,0.4498168498168498,-47.98046398046398,-1.6298828125,0.60498046875,0.91455078125,-12.62664794921875,-11.53564453125,1.77764892578125,1.4993894993894994,-64.77362637362637,48.58021978021978,0.18310546875,2.21630859375,-0.09912109375,62.5762939453125,-1.220703125,-42.999267578125,-25.03980463980464,0.0,55.027594627594624
35:18.517,0.59326171875,1.7490234375,0.70751953125,-25.70343017578125,6.77490234375,15.19012451171875,-38.084493284493284,0.0,-57.27667887667887,-1.69384765625,-0.22998046875,1.1884765625,-31.50177001953125,-1.6021728515625,16.693115234375,-14.244200244200243,-68.22222222222221,40.033699633699634,0.615234375,2.07177734375,0.40869140625,8.93402099609375,-25.88653564453125,33.31756591796875,-34.036141636141636,0.0,30.587545787545785
35:19.443,0.59326171875,1.7490234375,0.70751953125,-20.30181884765625,-53.52020263671875,-26.123046875,-19.791941391941393,-17.54285714285714,1.6493284493284492,-1.62060546875,-0.1728515625,0.82275390625,6.805419921875,-29.8614501953125,-8.4075927734375,7.646886446886446,-75.11941391941392,72.42051282051281,0.26904296875,1.60302734375,0.02099609375,-175.9185791015625,14.91546630859375,53.2073974609375,-54.577777777777776,-1.4993894993894994,71.52087912087912
35:20.418,0.9150390625,1.64794921875,0.763671875,-37.48321533203125,-39.03961181640625,5.279541015625,-18.29255189255189,-15.893528693528692,-5.997557997557998,-1.6318359375,-0.36328125,1.17041015625,64.00299072265625,-5.42449951171875,-73.1201171875,7.197069597069596,-77.06862026862026,69.57167277167277,0.6572265625,1.97021484375,-0.19140625,27.91595458984375,-24.26910400390625,-7.7362060546875,-52.32869352869353,-7.646886446886446,46.63101343101343
35:21.247,0.5048828125,2.1015625,0.5654296875,-37.48321533203125,-39.03961181640625,5.279541015625,-18.29255189255189,-15.893528693528692,-5.997557997557998,-1.53125,-0.7236328125,0.88916015625,69.1680908203125,9.613037109375,-18.22662353515625,8.246642246642246,-75.56923076923077,69.57167277167277,0.47216796875,2.1025390625,0.41650390625,14.77813720703125,3.76129150390625,36.865234375,3.2986568986568985,-5.697680097680098,40.93333333333333
35:22.027,0.72509765625,1.4970703125,1.08203125,-14.82391357421875,-95.001220703125,1.82342529296875,-10.645665445665445,-16.49328449328449,-2.399023199023199,-1.53125,-0.7236328125,0.88916015625,69.1680908203125,9.613037109375,-18.22662353515625,8.246642246642246,-75.56923076923077,69.57167277167277,0.47216796875,2.1025390625,0.41650390625,14.77813720703125,3.76129150390625,36.865234375,3.2986568986568985,-5.697680097680098,40.93333333333333
35:22.807,1.087890625,2.0751953125,0.7607421875,-15.6402587890625,-17.11273193359375,-10.894775390625,-24.29010989010989,7.197069597069596,-19.34212454212454,-1.916015625,-0.1298828125,0.80859375,-19.84405517578125,-37.65106201171875,-18.5394287109375,4.798046398046398,-65.82319902319902,33.88620268620269,-0.04052734375,1.7080078125,-0.9130859375,-191.04766845703125,33.4930419921875,-1.24359130859375,-7.646886446886446,48.73015873015873,8.996336996336996
35:23.635,0.94873046875,2.07568359375,0.30908203125,10.3912353515625,58.624267578125,16.70074462890625,-26.689133089133087,12.594871794871795,-12.444932844932845,-2.00439453125,-0.11669921875,0.94921875,-3.84521484375,7.3699951171875,18.0816650390625,16.193406593406593,-64.17387057387057,40.033699633699634,0.5068359375,1.96044921875,-0.1328125,59.28802490234375,-4.98199462890625,0.67901611328125,-12.294993894993894,50.52942612942613,10.795604395604395
35:24.416,0.94873046875,2.07568359375,0.30908203125,17.63153076171875,53.93218994140625,30.670166015625,-36.435164835164834,5.997557997557998,-27.738705738705736,-1.859375,-0.32763671875,0.478515625,-53.58123779296875,-11.72637939453125,21.331787109375,11.095482295482295,-60.275457875457874,33.73626373626374,-0.55078125,2.16796875,2.15087890625,-24.68109130859375,-12.82501220703125,17.63153076171875,-65.22344322344323,29.83785103785104,-20.09181929181929
35:25.244,0.546875,1.80078125,0.4921875,17.63153076171875,53.93218994140625,30.670166015625,-36.435164835164834,5.997557997557998,-27.738705738705736,-1.68212890625,-0.02294921875,1.0185546875,-4.00543212890625,7.9345703125,15.625,19.941880341880342,-61.17509157509157,33.13650793650793,0.38427734375,2.59375,-0.43798828125,80.54351806640625,-18.6004638671875,-12.88604736328125,-44.08205128205128,31.037362637362637,1.9492063492063492
35:26.024,1.00927734375,1.66650390625,0.6279296875,15.289306640625,26.18408203125,13.90838623046875,-33.73626373626374,10.045909645909646,-20.39169719169719,-1.68212890625,-0.02294921875,1.0185546875,-4.00543212890625,7.9345703125,15.625,19.941880341880342,-61.17509157509157,33.13650793650793,0.38427734375,2.59375,-0.43798828125,80.54351806640625,-18.6004638671875,-12.88604736328125,-44.08205128205128,31.037362637362637,1.9492063492063492
35:26.804,0.5400390625,1.697265625,0.94677734375,-9.19342041015625,-19.90509033203125,33.172607421875,-39.433943833943836,6.447374847374848,-27.13894993894994,-1.583984375,-0.53076171875,1.0068359375,-2.18963623046875,-5.56182861328125,11.77978515625,11.995115995115995,-60.425396825396824,35.985347985347985,0.765625,2.36669921875,0.17333984375,40.90118408203125,66.52069091796875,15.15960693359375,-31.037362637362637,32.536752136752135,-1.0495726495726496
35:27.730,0.869140625,1.98876953125,0.6142578125,-15.55633544921875,-33.447265625,-34.47723388671875,-44.68180708180708,4.348229548229548,-31.936996336996337,-1.61181640625,0.08740234375,1.20166015625,17.15087890625,4.57000732421875,-15.1214599609375,14.993894993894994,-57.87643467643468,42.58266178266178,-0.05029296875,1.64892578125,-0.412109375,78.75823974609375,-110.83221435546875,-0.58746337890625,-72.57045177045177,33.28644688644688,-15.143833943833943
35:28.657,1.0078125,2.2587890625,0.16650390625,-12.115478515625,83.3587646484375,23.01025390625,-56.826862026862024,3.4485958485958483,-36.135286935286935,-2.3291015625,-0.078125,1.08056640625,-27.435302734375,15.83099365234375,21.82769775390625,13.794383394383393,-54.12796092796093,55.62735042735043,0.357421875,1.9501953125,0.20263671875,50.80413818359375,29.89959716796875,1.91497802734375,-43.78217338217338,44.38192918192918,-25.93943833943834
35:29.583,0.89013671875,1.82568359375,0.43212890625,44.01397705078125,170.501708984375,39.43634033203125,-78.11819291819292,-13.794383394383393,-82.76630036630036,-1.763671875,-0.22216796875,0.92041015625,-132.26318359375,13.23699951171875,82.8094482421875,1.799267399267399,-41.832967032967034,55.027594627594624,0.45263671875,1.86328125,0.00927734375,-24.1546630859375,40.8935546875,23.5748291015625,-76.61880341880341,29.537973137973136,-35.985347985347985
35:30.558,0.98046875,1.74267578125,0.44140625,4.21142578125,32.1807861328125,-6.988525390625,-66.12307692307692,-5.547741147741148,-28.188522588522588,-1.70703125,0.23388671875,0.62451171875,-57.47222900390625,-26.19171142578125,34.0576171875,6.447374847374848,-52.47863247863248,92.06251526251526,0.38427734375,1.4453125,-0.310546875,-122.59674072265625,128.45611572265625,-46.91314697265625,-89.51355311355312,22.04102564102564,-17.842735042735043
35:31.436,0.98046875,1.74267578125,0.44140625,5.43212890625,80.87921142578125,2.7008056640625,-69.72161172161172,-19.19218559218559,-17.692796092796094,-1.67919921875,-0.05078125,1.0068359375,-5.16510009765625,-12.15362548828125,10.76507568359375,20.99145299145299,-49.62979242979243,95.5111111111111,0.45263671875,1.9794921875,0.0634765625,46.37908935546875,-15.13671875,-9.33074951171875,-92.36239316239316,14.694017094017093,-48.28034188034188
35:32.215,0.78076171875,2.1591796875,0.46728515625,5.43212890625,80.87921142578125,2.7008056640625,-69.72161172161172,-19.19218559218559,-17.692796092796094,-1.67919921875,-0.05078125,1.0068359375,-23.23150634765625,-8.026123046875,24.3682861328125,8.096703296703296,-57.87643467643468,76.31892551892551,0.45263671875,1.9794921875,0.0634765625,62.75177001953125,-72.33428955078125,27.88543701171875,-82.46642246642246,-10.345787545787545,40.93333333333333
35:32.995,0.6865234375,1.75048828125,0.68994140625,15.899658203125,53.74908447265625,43.487548828125,-50.07960927960928,-17.093040293040293,-10.345787545787545,-1.49609375,-0.19775390625,1.13134765625,-23.23150634765625,-8.026123046875,24.3682861328125,8.096703296703296,-57.87643467643468,76.31892551892551,-0.11328125,2.40478515625,0.36669921875,62.75177001953125,-72.33428955078125,27.88543701171875,-82.46642246642246,-10.345787545787545,40.93333333333333
35:33.776,1.00439453125,2.67578125,0.61328125,-4.64630126953125,-66.29180908203125,-61.309814453125,-27.738705738705736,-18.742368742368743,3.4485958485958483,-2.06201171875,-0.216796875,1.24560546875,5.126953125,-25.32196044921875,-18.04351806640625,8.246642246642246,-68.22222222222221,72.27057387057387,-0.16455078125,1.265625,0.19921875,-172.7752685546875,11.71875,32.989501953125,-35.38559218559219,4.1982905982905985,74.66959706959706
35:34.897,0.90185546875,2.21044921875,0.376953125,-20.6146240234375,10.8489990234375,4.50897216796875,-16.64322344322344,-18.29255189255189,6.447374847374848,-1.884765625,-0.16357421875,1.05078125,14.38140869140625,-18.60809326171875,4.11224365234375,4.947985347985348,-72.72039072039071,70.92112332112332,0.48583984375,1.99755859375,-0.01806640625,53.3294677734375,-1.16729736328125,-4.37164306640625,-55.027594627594624,-1.3494505494505493,22.49084249084249
35:35.774,0.80322265625,1.76953125,0.80224609375,22.08709716796875,51.84173583984375,-17.1661376953125,-18.742368742368743,-21.44126984126984,-5.247863247863248,-1.5595703125,-0.1806640625,1.03955078125,-42.21343994140625,-0.274658203125,21.728515625,3.8984126984126983,-72.72039072039071,67.47252747252747,-0.2265625,3.09033203125,0.1416015625,46.88262939453125,116.39404296875,-5.0201416015625,-41.08327228327228,8.846398046398047,30.137728937728937
35:36.749,0.947265625,1.8935546875,0.35693359375,-61.74468994140625,-118.0267333984375,-106.50634765625,-21.29133089133089,-16.49328449328449,-7.197069597069596,-1.38525390625,0.29931640625,1.33251953125,51.849365234375,-5.37109375,-39.17694091796875,9.296214896214895,-75.26935286935287,72.27057387057387,0.34033203125,2.14892578125,-0.322265625,74.9664306640625,-44.36492919921875,12.969970703125,-5.697680097680098,-5.697680097680098,96.4107448107448
35:37.529,0.66064453125,1.6181640625,0.60791015625,-16.79229736328125,-52.02484130859375,7.476806640625,-16.943101343101343,-16.793162393162394,-16.043467643467643,-1.5830078125,-0.30712890625,0.89892578125,72.42584228515625,4.99725341796875,-62.00408935546875,-2.848840048840049,-79.46764346764347,56.97680097680097,0.5166015625,1.97607421875,-0.0498046875,-4.7760009765625,-30.86090087890625,9.9945068359375,-29.687912087912085,-15.293772893772893,63.873992673992674
35:38.553,0.6318359375,1.396484375,0.60888671875,-6.7138671875,3.692626953125,-6.0577392578125,-31.487179487179485,7.796825396825397,-24.29010989010989,-1.41748046875,-0.06201171875,0.951171875,3.204345703125,-8.1329345703125,-0.06866455078125,5.247863247863248,-64.47374847374847,38.084493284493284,0.26025390625,2.07763671875,-0.4697265625,-127.98309326171875,1.35040283203125,3.4637451171875,-20.39169719169719,40.33357753357753,-21.59120879120879
35:39.479,0.6318359375,1.396484375,0.60888671875,-3.60870361328125,98.968505859375,-5.42449951171875,-33.88620268620269,5.997557997557998,-17.093040293040293,-1.48095703125,0.24462890625,1.1650390625,13.83209228515625,0.11444091796875,-12.1917724609375,20.24175824175824,-63.57411477411477,46.03125763125763,0.20068359375,3.15234375,0.380859375,122.955322265625,-83.44268798828125,-20.95794677734375,-68.67203907203907,31.487179487179485,10.345787545787545
35:40.308,0.48291015625,1.49658203125,1.04541015625,-3.60870361328125,98.968505859375,-5.42449951171875,-34.036141636141636,5.097924297924298,-14.244200244200243,-1.6181640625,-0.12646484375,0.875,-29.8614501953125,-36.30828857421875,19.775390625,18.742368742368743,-61.624908424908426,48.73015873015873,0.39208984375,2.048828125,0.10986328125,50.5523681640625,-14.1754150390625,-0.5340576171875,-54.12796092796093,26.689133089133087,6.897191697191697
35:41.137,0.9619140625,1.97265625,0.4970703125,12.3443603515625,11.444091796875,43.5791015625,-34.036141636141636,5.097924297924298,-14.244200244200243,-1.6181640625,-0.12646484375,0.875,-13.7176513671875,11.81793212890625,-9.2315673828125,19.042246642246642,-60.57533577533577,48.73015873015873,0.39208984375,2.048828125,0.10986328125,-89.31732177734375,30.66253662109375,-13.427734375,-58.026373626373626,31.187301587301587,-12.145054945054945
35:42.063,0.73046875,1.5009765625,0.7021484375,-6.18743896484375,14.80865478515625,4.5318603515625,-31.787057387057384,12.444932844932845,-16.043467643467643,-1.494140625,-0.3076171875,0.84619140625,-13.7176513671875,11.81793212890625,-9.2315673828125,21.59120879120879,-57.57655677655677,56.227106227106226,0.2451171875,1.77734375,-0.54541015625,-89.31732177734375,30.66253662109375,-13.427734375,-83.96581196581197,37.03492063492063,-10.345787545787545
35:42.990,0.70751953125,1.40673828125,0.6103515625,7.51495361328125,-24.69635009765625,-39.2303466796875,-45.73137973137973,9.296214896214895,-18.59242979242979,-1.4697265625,0.22412109375,1.21044921875,36.5142822265625,1.9073486328125,-14.95361328125,16.043467643467643,-49.329914529914525,66.12307692307692,0.40625,2.4638671875,-0.27587890625,83.04595947265625,-15.58685302734375,-13.40484619140625,-69.87155067155066,44.98168498168498,-44.23199023199023
35:44.013,0.80029296875,1.6337890625,0.71240234375,36.651611328125,57.861328125,9.3231201171875,-65.67326007326007,-7.197069597069596,-43.03247863247863,-1.42822265625,-0.28564453125,1.169921875,-76.71356201171875,-5.6915283203125,52.4444580078125,1.4993894993894994,-53.82808302808303,84.86544566544566,0.640625,1.79931640625,0.04833984375,9.80377197265625,34.46197509765625,23.64349365234375,-95.5111111111111,17.093040293040293,-17.39291819291819
35:44.891,0.7060546875,1.779296875,0.54345703125,5.40924072265625,40.77911376953125,23.0560302734375,-59.07594627594627,-25.93943833943834,-24.739926739926737,-1.6865234375,0.38818359375,0.89501953125,-41.3818359375,-8.8958740234375,1.71661376953125,1.4993894993894994,-53.82808302808303,84.86544566544566,0.396484375,2.1328125,0.15771484375,38.51318359375,-4.46319580078125,-52.86407470703125,-95.5111111111111,17.093040293040293,-17.39291819291819
35:45.768,0.6123046875,1.576171875,0.88330078125,0.23651123046875,-11.20758056640625,68.115234375,-59.37582417582417,-26.389255189255188,1.9492063492063492,-1.41943359375,-0.04248046875,0.62060546875,-35.83526611328125,-68.8934326171875,34.56878662109375,20.39169719169719,-53.078388278388275,99.55946275946276,0.4306640625,2.0244140625,0.2197265625,31.036376953125,-12.1002197265625,-0.63323974609375,-97.46031746031746,24.88986568986569,-16.193406593406593
35:46.646,0.69970703125,1.47265625,0.6689453125,11.95526123046875,33.33282470703125,33.0657958984375,-42.88253968253968,-22.04102564102564,-5.697680097680098,-1.423828125,-0.14990234375,0.97412109375,4.150390625,-4.1656494140625,19.4549560546875,13.344566544566543,-56.97680097680097,79.76752136752137,0.4443359375,1.51953125,-1.75,25.07781982421875,-37.77313232421875,17.3492431640625,-84.7155067155067,-6.747252747252747,56.97680097680097
35:47.718,1.15087890625,1.716796875,0.6513671875,-18.98193359375,-27.0843505859375,-39.6575927734375,-26.98901098901099,-20.54163614163614,3.4485958485958483,-2.0361328125,0.177734375,1.2216796875,28.900146484375,10.711669921875,-20.5230712890625,8.096703296703296,-64.47374847374847,71.07106227106227,0.384765625,1.32373046875,0.26318359375,19.32525634765625,-141.2811279296875,39.306640625,-37.03492063492063,2.998778998778999,76.91868131868132
35:48.547,0.6728515625,2.3310546875,0.08984375,-16.5863037109375,-34.58404541015625,29.23583984375,-13.644444444444444,-20.841514041514042,6.297435897435897,-2.11181640625,0.24462890625,0.49169921875,59.94415283203125,-2.28118896484375,-17.5018310546875,3.7484737484737485,-71.07106227106227,67.17264957264958,0.4453125,2.083984375,0.07275390625,34.5306396484375,-18.49365234375,-14.8773193359375,-62.82442002442002,0.29987789987789987,10.045909645909646
35:49.376,0.6728515625,2.3310546875,0.08984375,-16.5863037109375,-34.58404541015625,29.23583984375,-31.787057387057384,-16.49328449328449,-40.33357753357753,-1.80322265625,-0.326171875,0.32861328125,32.989501953125,9.82666015625,-28.43475341796875,-11.245421245421245,-68.67203907203907,42.73260073260073,-0.3896484375,2.1796875,-0.0595703125,-59.50927734375,-125.18310546875,-15.35797119140625,-30.437606837606836,2.0991452991452992,33.13650793650793
35:50.351,0.34326171875,1.75244140625,0.67626953125,-3.4637451171875,-21.78955078125,-2.01416015625,-38.38437118437118,0.4498168498168498,-49.030036630036626,-1.8115234375,0.14990234375,0.12939453125,-6.12640380859375,14.79339599609375,-18.53179931640625,-6.747252747252747,-60.425396825396824,19.49206349206349,0.5498046875,2.74755859375,-0.14111328125,77.239990234375,-7.92694091796875,0.84686279296875,-58.176312576312576,19.49206349206349,-8.846398046398047
35:51.131,0.80810546875,1.84423828125,0.7421875,-63.323974609375,-1.35040283203125,2.81524658203125,-38.38437118437118,0.4498168498168498,-49.030036630036626,-1.8115234375,0.14990234375,0.12939453125,-6.12640380859375,14.79339599609375,-18.53179931640625,18.142612942612942,-63.27423687423687,16.193406593406593,0.5498046875,2.74755859375,-0.14111328125,42.27447509765625,-82.29827880859375,27.04620361328125,-46.48107448107448,24.739926739926737,11.545299145299145
35:51.960,0.26708984375,1.79443359375,0.86865234375,34.79766845703125,31.4483642578125,12.00103759765625,-35.38559218559219,12.444932844932845,-28.03858363858364,-1.8466796875,-0.6455078125,0.0810546875,-37.48321533203125,-15.2435302734375,16.6473388671875,18.142612942612942,-63.27423687423687,16.193406593406593,0.185546875,1.8662109375,0.31884765625,42.27447509765625,-82.29827880859375,27.04620361328125,-46.48107448107448,24.739926739926737,11.545299145299145
35:52.850,1.0,2.13623046875,1.0146484375,-50.6591796875,-8.4381103515625,-9.54437255859375,-37.634676434676436,14.694017094017093,-29.83785103785104,-2.11767578125,-0.01318359375,1.1875,-8.6822509765625,59.95941162109375,-18.768310546875,13.644444444444444,-59.825641025641026,14.993894993894994,-0.07568359375,0.86572265625,-0.2509765625,-55.8624267578125,71.40350341796875,47.11151123046875,-51.87887667887668,31.187301587301587,-11.395360195360196
35:53.763,0.93017578125,1.904296875,0.39697265625,-23.15521240234375,15.55633544921875,43.8079833984375,-45.58144078144078,0.29987789987789987,-26.98901098901099,-1.78271484375,-0.111328125,0.76708984375,32.21893310546875,32.012939453125,-15.20538330078125,18.59242979242979,-56.676923076923075,40.93333333333333,0.47607421875,1.974609375,0.01953125,59.5703125,-0.06103515625,-1.83868408203125,-39.883760683760684,40.33357753357753,-11.695238095238095
35:54.592,0.81005859375,1.703125,0.375,38.5589599609375,160.72845458984375,43.61724853515625,-53.97802197802198,9.895970695970696,-34.485958485958484,-1.5478515625,-0.11181640625,0.712890625,-155.975341796875,-7.7056884765625,98.50311279296875,14.394139194139193,-53.67814407814408,55.47741147741147,0.8017578125,1.98388671875,0.060546875,-16.0675048828125,60.58502197265625,31.8756103515625,-81.41684981684982,39.13406593406593,-34.036141636141636
35:55.518,0.8232421875,1.81787109375,0.31591796875,-6.98089599609375,-16.7083740234375,-32.14263916015625,-65.07350427350427,-17.692796092796094,-32.98656898656898,-1.783203125,0.123046875,0.95751953125,-16.82281494140625,-22.3388671875,5.0506591796875,11.545299145299145,-53.228327228327224,86.06495726495726,0.37060546875,1.73876953125,-0.10888671875,-36.285400390625,238.30413818359375,8.5296630859375,-94.91135531135531,10.045909645909646,-23.09059829059829
35:56.298,0.8232421875,1.81787109375,0.31591796875,-6.98089599609375,-16.7083740234375,-32.14263916015625,-59.37582417582417,-17.54285714285714,-21.14139194139194,-1.833984375,0.4443359375,0.458984375,-25.42877197265625,23.58245849609375,38.177490234375,10.645665445665445,-53.82808302808303,83.36605616605617,0.51025390625,2.0107421875,0.1337890625,56.243896484375,-11.444091796875,-1.85394287109375,-94.01172161172161,5.547741147741148,-41.832967032967034
35:57.078,0.70751953125,1.62548828125,0.32080078125,17.73834228515625,41.06903076171875,21.94976806640625,-59.37582417582417,-17.54285714285714,-21.14139194139194,-1.833984375,0.4443359375,0.458984375,-25.42877197265625,23.58245849609375,38.177490234375,7.946764346764346,-62.37460317460317,73.32014652014652,0.51025390625,2.0107421875,0.1337890625,56.243896484375,-11.444091796875,-1.85394287109375,-64.17387057387057,-7.796825396825397,52.778510378510376
35:57.907,0.72998046875,1.69873046875,0.4609375,8.72039794921875,20.721435546875,11.89422607421875,-39.883760683760684,-17.093040293040293,-12.294993894993894,-1.69775390625,-0.24365234375,0.77392578125,-63.1866455078125,13.580322265625,31.57806396484375,7.946764346764346,-62.37460317460317,73.32014652014652,0.201171875,1.6865234375,-0.431640625,0.579833984375,-51.75018310546875,-16.60919189453125,-64.17387057387057,-7.796825396825397,52.778510378510376
35:58.784,1.14501953125,1.197265625,0.74755859375,-15.472412109375,-26.92413330078125,-16.05224609375,-23.99023199023199,-18.59242979242979,-2.399023199023199,-1.37939453125,0.27685546875,1.17041015625,22.1710205078125,5.157470703125,-23.62823486328125,8.996336996336996,-71.22100122100122,70.62124542124542,2.060546875,2.9375,0.01806640625,135.4522705078125,-88.31024169921875,6.64520263671875,-26.23931623931624,4.048351648351648,79.01782661782661
35:59.711,0.76123046875,1.46630859375,0.478515625,-9.0484619140625,-10.01739501953125,40.00091552734375,-13.944322344322345,-24.14017094017094,-2.249084249084249,-1.326171875,0.298828125,0.421875,-16.24298095703125,-31.86798095703125,15.3961181640625,0.29987789987789987,-71.97069597069597,63.12429792429792,0.484375,1.9921875,0.173828125,46.9970703125,-24.65057373046875,-0.70953369140625,-37.03492063492063,0.8996336996336995,35.68547008547009
36:00.637,0.96435546875,1.64404296875,0.32421875,21.35467529296875,19.9737548828125,22.23968505859375,-25.489621489621488,-16.49328449328449,-15.143833943833943,-1.44921875,0.04052734375,0.9775390625,-21.27838134765625,10.6353759765625,24.932861328125,7.047130647130647,-77.96825396825396,72.12063492063491,0.05517578125,1.95263671875,-0.80029296875,-144.63043212890625,-125.6866455078125,-5.06591796875,-57.72649572649573,-5.847619047619047,61.02515262515262
36:01.709,0.677734375,1.62109375,0.39794921875,-12.64190673828125,-27.0843505859375,-6.66046142578125,-17.842735042735043,-15.143833943833943,-9.446153846153846,-1.59814453125,0.2177734375,1.22021484375,69.63348388671875,2.4261474609375,-51.0406494140625,7.646886446886446,-77.96825396825396,67.92234432234432,0.53662109375,2.0791015625,-0.31396484375,36.163330078125,-23.81134033203125,-10.9100341796875,2.399023199023199,-5.547741147741148,67.62246642246642
36:02.685,0.654296875,1.81201171875,0.541015625,-63.42315673828125,-81.38275146484375,-106.48345947265625,-4.648107448107448,-16.043467643467643,4.648107448107448,-1.65576171875,-0.548828125,1.115234375,63.3087158203125,25.57373046875,-68.67218017578125,6.447374847374848,-77.06862026862026,67.47252747252747,0.56005859375,1.90380859375,-0.271484375,-20.86639404296875,-147.552490234375,8.36944580078125,-2.848840048840049,42.13284493284493,26.23931623931624
36:04.001,0.88525390625,1.78662109375,0.46142578125,-26.83258056640625,-87.5091552734375,-64.87274169921875,-26.23931623931624,-3.2986568986568985,-26.389255189255188,-1.42333984375,0.15234375,1.25537109375,85.3424072265625,8.78143310546875,-52.24609375,4.648107448107448,-66.87277167277168,37.18485958485958,0.5849609375,2.09814453125,-0.26806640625,29.94537353515625,-11.688232421875,4.1656494140625,-3.4485958485958483,52.17875457875458,49.62979242979243
36:04.829,0.763671875,1.80615234375,0.89013671875,27.3284912109375,36.97967529296875,-88.043212890625,-24.44004884004884,3.8984126984126983,-24.88986568986569,-1.5576171875,-0.1826171875,1.072265625,-32.05108642578125,14.97650146484375,32.24945068359375,4.648107448107448,-66.87277167277168,37.18485958485958,1.6279296875,2.56201171875,-0.21484375,69.4732666015625,-76.17950439453125,33.538818359375,-3.4485958485958483,52.17875457875458,49.62979242979243
36:05.805,1.083984375,2.52294921875,0.78466796875,-4.9591064453125,-91.49932861328125,-94.42901611328125,-26.98901098901099,14.993894993894994,-20.69157509157509,-1.80419921875,-0.17138671875,1.146484375,-6.08062744140625,-34.3780517578125,-22.62115478515625,15.443711843711844,-63.12429792429792,36.435164835164834,0.1337890625,1.50927734375,0.12255859375,-168.93768310546875,70.41168212890625,-3.631591796875,-80.51721611721611,38.68424908424908,-17.242979242979242
36:06.731,1.2958984375,0.61962890625,0.04931640625,123.8861083984375,80.81817626953125,189.10980224609375,-34.485958485958484,9.746031746031745,-18.59242979242979,-2.01904296875,-0.3583984375,0.93212890625,11.9171142578125,7.31658935546875,-3.3111572265625,18.44249084249084,-62.074725274725274,48.43028083028083,0.40673828125,2.03076171875,0.08984375,51.849365234375,18.2342529296875,-10.82611083984375,-52.32869352869353,36.435164835164834,-7.796825396825397
36:07.511,2.43701171875,-0.6513671875,0.1884765625,32.46307373046875,-64.727783203125,51.38397216796875,-17.39291819291819,-18.892307692307693,-7.197069597069596,-1.7958984375,-0.23095703125,0.5712890625,-49.24774169921875,12.237548828125,40.7257080078125,22.34090354090354,-62.37460317460317,49.179975579975576,0.5283203125,1.71728515625,-1.13037109375,58.1207275390625,-62.47711181640625,-1.04522705078125,-38.53431013431013,38.084493284493284,13.344566544566543
36:08.486,0.31787109375,0.5009765625,1.47314453125,42.0379638671875,73.23455810546875,-152.93121337890625,7.496947496947497,-28.788278388278385,-6.447374847374848,-1.6640625,-0.07080078125,1.37158203125,7.0343017578125,-0.09918212890625,-6.5765380859375,20.39169719169719,-58.176312576312576,41.533089133089135,-0.68994140625,2.1416015625,-1.02685546875,111.8927001953125,-108.428955078125,-24.68109130859375,-79.76752136752137,32.08693528693529,-9.146275946275946
36:09.363,0.31787109375,0.5009765625,1.47314453125,42.0379638671875,73.23455810546875,-152.93121337890625,-9.596092796092796,-8.546520146520146,54.427838827838826,-1.357421875,0.19921875,0.34423828125,-12.1917724609375,-31.25,7.60650634765625,19.64200244200244,-55.32747252747252,63.42417582417582,0.52294921875,1.96484375,0.15771484375,35.78948974609375,-27.191162109375,-4.79888916015625,-47.68058608058608,44.08205128205128,-30.137728937728937
36:10.192,0.70654296875,1.80615234375,0.25439453125,-30.34210205078125,62.5762939453125,110.55755615234375,-9.596092796092796,-8.546520146520146,54.427838827838826,-1.56689453125,0.24755859375,1.46533203125,-39.69573974609375,-2.64739990234375,40.22979736328125,-1.4993894993894994,-49.62979242979243,73.32014652014652,1.50146484375,2.33544921875,-0.52392578125,-130.43975830078125,249.99237060546875,-91.36199951171875,-97.01050061050061,18.892307692307693,-17.992673992673993
36:11.069,1.08251953125,2.04736328125,0.4638671875,15.95306396484375,-23.58245849609375,18.6309814453125,-72.42051282051281,-15.743589743589743,-65.52332112332113,-1.56689453125,0.24755859375,1.46533203125,-39.69573974609375,-2.64739990234375,40.22979736328125,-3.7484737484737485,-45.88131868131868,62.52454212454212,1.50146484375,2.33544921875,-0.52392578125,-130.43975830078125,249.99237060546875,-91.36199951171875,-79.76752136752137,32.536752136752135,-17.842735042735043
36:11.947,0.8642578125,2.166015625,-0.06201171875,32.0587158203125,39.11590576171875,128.84521484375,-64.47374847374847,-0.29987789987789987,-27.588766788766787,-1.53662109375,0.3896484375,1.1103515625,-46.539306640625,3.70025634765625,44.12078857421875,-3.7484737484737485,-45.88131868131868,62.52454212454212,0.185546875,2.03662109375,0.04052734375,3.8604736328125,14.18304443359375,-20.71380615234375,-82.31648351648352,14.394139194139193,-21.741147741147742
36:12.825,0.56494140625,1.8525390625,0.65576171875,4.21142578125,55.5267333984375,13.7481689453125,-55.92722832722833,-20.54163614163614,-25.489621489621488,-1.43701171875,-0.31005859375,1.2734375,-57.4951171875,7.43865966796875,39.29901123046875,-13.944322344322345,-60.72527472527472,77.06862026862026,0.095703125,1.63525390625,-0.6376953125,18.1121826171875,47.393798828125,25.24566650390625,-82.31648351648352,14.394139194139193,-21.741147741147742
36:13.653,0.63427734375,0.9931640625,0.6455078125,-18.27239990234375,-2.11334228515625,21.42333984375,-71.52087912087912,-17.692796092796094,5.247863247863248,-1.26708984375,0.16162109375,1.28271484375,13.23699951171875,3.47137451171875,-16.845703125,30.737484737484735,-58.326251526251525,110.2051282051282,0.28125,2.74169921875,-0.02734375,82.21435546875,-46.92840576171875,-23.4375,-84.56556776556776,9.746031746031745,42.88253968253968
36:14.494,0.94921875,2.65087890625,0.6962890625,-23.6053466796875,14.617919921875,57.97576904296875,-19.34212454212454,-26.539194139194137,32.08693528693529,-2.11669921875,-0.0625,1.55029296875,-19.58465576171875,-30.609130859375,23.46038818359375,21.89108669108669,-51.279120879120875,90.11330891330891,0.29443359375,1.94970703125,0.39892578125,42.76275634765625,-25.58135986328125,-0.8697509765625,-97.91013431013431,5.397802197802197,-31.487179487179485
36:15.311,0.94921875,2.65087890625,0.6962890625,-23.6053466796875,14.617919921875,57.97576904296875,-50.829304029304026,-14.993894993894994,-23.54041514041514,-1.83642578125,-0.16357421875,0.91650390625,-9.857177734375,21.9268798828125,-4.8675537109375,7.946764346764346,-64.62368742368741,78.71794871794872,0.1396484375,3.48828125,-0.75634765625,-250.0,106.8115234375,31.1431884765625,-56.676923076923075,-5.097924297924298,72.57045177045177
36:16.335,0.642578125,2.009765625,0.4375,-11.7034912109375,36.58294677734375,7.74383544921875,-27.88864468864469,-17.842735042735043,-1.4993894993894994,-1.4189453125,-0.1875,1.16455078125,60.48583984375,-31.097412109375,-50.43792724609375,1.9492063492063492,-71.37094017094017,68.97191697191697,0.59130859375,1.97998046875,-0.1611328125,43.81561279296875,-31.1431884765625,-0.43487548828125,-51.72893772893773,0.0,56.826862026862024
36:17.163,0.56640625,1.5791015625,0.6064453125,15.68603515625,-38.70391845703125,-51.36871337890625,-27.88864468864469,-17.842735042735043,-1.4993894993894994,-1.4189453125,-0.1875,1.16455078125,-49.98779296875,9.09423828125,51.73492431640625,4.498168498168498,-75.41929181929181,71.07106227106227,0.59130859375,1.97998046875,-0.1611328125,53.64227294921875,75.225830078125,-10.55908203125,-31.787057387057384,-2.548962148962149,57.87643467643468
36:18.284,0.3828125,1.39404296875,0.3857421875,25.1007080078125,57.60955810546875,-7.89642333984375,-14.544078144078144,-22.19096459096459,-3.8984126984126983,-1.0751953125,-0.0693359375,1.7919921875,17.20428466796875,-6.1187744140625,-21.5301513671875,6.147496947496947,-79.31770451770451,74.06984126984126,0.2998046875,2.240234375,-0.82666015625,120.03326416015625,-100.5401611328125,-23.1781005859375,-35.08571428571428,2.848840048840049,95.5111111111111
36:19.455,0.109375,0.74755859375,1.43701171875,-50.10986328125,51.1016845703125,159.0118408203125,21.59120879120879,-4.947985347985348,44.08205128205128,-1.4208984375,-0.015625,0.837890625,-41.72515869140625,-9.88006591796875,19.38629150390625,10.495726495726496,-81.41684981684982,76.16898656898657,0.48046875,2.02001953125,0.20068359375,23.26202392578125,-39.6728515625,-15.2130126953125,-66.27301587301586,-4.1982905982905985,28.338461538461537
36:20.478,0.76708984375,1.552734375,0.27197265625,-63.30108642578125,-161.62109375,-41.3665771484375,-20.39169719169719,-13.044688644688645,-13.194627594627594,-1.53759765625,-0.18896484375,1.16552734375,99.28131103515625,7.40814208984375,-86.944580078125,7.496947496947497,-80.06739926739927,68.07228327228327,0.423828125,1.8603515625,-0.12646484375,-25.7720947265625,-250.0,-22.39990234375,-4.947985347985348,-5.997557997557998,44.08205128205128
36:21.404,0.76708984375,1.552734375,0.27197265625,-50.445556640625,-27.5115966796875,24.87945556640625,-25.489621489621488,-1.799267399267399,-20.24175824175824,-1.2880859375,0.10205078125,1.41357421875,41.83197021484375,18.2037353515625,-21.06475830078125,1.1995115995115995,-71.82075702075701,55.62735042735043,0.3876953125,2.24951171875,-0.193359375,65.84930419921875,-30.2886962890625,14.12200927734375,-17.39291819291819,30.737484737484735,4.798046398046398
36:22.575,0.73583984375,2.001953125,0.90625,8.79669189453125,-0.45013427734375,14.06097412109375,-25.93943833943834,0.7496947496947497,-10.495726495726496,-1.7333984375,0.16064453125,1.7021484375,-4.0740966796875,-7.293701171875,18.12744140625,3.8984126984126983,-67.92234432234432,42.13284493284493,0.5654296875,1.8447265625,0.4833984375,46.3409423828125,4.93621826171875,12.603759765625,-3.1487179487179486,51.57899877899878,55.32747252747252
36:23.696,0.75927734375,1.85400390625,0.91943359375,-25.421142578125,-64.91851806640625,0.41961669921875,-23.24053724053724,18.59242979242979,-18.29255189255189,-1.6005859375,0.04638671875,1.35693359375,-12.06207275390625,-14.923095703125,-22.857666015625,13.644444444444444,-63.873992673992674,42.13284493284493,0.28662109375,2.63671875,-0.60498046875,-201.1566162109375,61.42425537109375,3.50189208984375,-66.12307692307692,34.635897435897434,-23.39047619047619
36:24.525,0.84814453125,1.47998046875,0.52880859375,32.1502685546875,31.158447265625,-15.49530029296875,-33.58632478632479,7.047130647130647,-18.44249084249084,-1.33642578125,0.296875,1.28369140625,24.8260498046875,5.218505859375,-16.04461669921875,19.042246642246642,-62.37460317460317,50.22954822954823,0.09716796875,2.45263671875,-0.24609375,95.4742431640625,-15.90728759765625,-25.77972412109375,-41.38315018315018,29.088156288156288,25.93943833943834
36:25.402,0.84814453125,1.47998046875,0.52880859375,-10.0250244140625,-17.20428466796875,18.10455322265625,-28.788278388278385,6.147496947496947,-4.648107448107448,-1.5361328125,-0.09228515625,1.60009765625,-7.4310302734375,-17.6239013671875,9.5062255859375,20.24175824175824,-63.12429792429792,56.826862026862024,0.72314453125,1.8125,0.4931640625,30.49468994140625,14.16778564453125,14.39666748046875,-32.686691086691084,38.084493284493284,10.645665445665445
36:26.328,0.5986328125,1.8056640625,0.80029296875,-10.0250244140625,-17.20428466796875,18.10455322265625,-49.77973137973138,2.848840048840049,-32.08693528693529,-1.5712890625,0.00439453125,0.45947265625,13.22174072265625,5.5999755859375,-29.59442138671875,12.444932844932845,-59.67570207570208,56.676923076923075,0.2607421875,2.6767578125,-0.44384765625,-250.0,67.48199462890625,10.101318359375,-78.71794871794872,31.787057387057384,-24.44004884004884
36:27.303,0.71875,1.44287109375,0.56298828125,-6.53839111328125,11.28387451171875,18.22662353515625,-70.47130647130646,12.894749694749695,-54.427838827838826,-1.40087890625,0.23291015625,1.2763671875,15.81573486328125,3.22723388671875,-5.42449951171875,18.44249084249084,-52.928449328449325,76.91868131868132,0.37841796875,2.12255859375,-0.29150390625,64.97955322265625,-12.21466064453125,-6.77490234375,-72.12063492063491,42.88253968253968,-35.835409035409036
36:28.522,0.71728515625,1.9150390625,0.46142578125,49.468994140625,129.7149658203125,37.90283203125,-54.727716727716725,-22.49084249084249,-14.694017094017093,-1.541015625,-0.021484375,1.3935546875,-94.65789794921875,6.52313232421875,93.780517578125,-5.997557997557998,-50.829304029304026,75.71916971916971,0.4931640625,1.990234375,-0.0234375,-14.2822265625,19.67620849609375,26.4434814453125,-83.06617826617827,21.29133089133089,-22.04102564102564
36:29.449,0.71728515625,1.9150390625,0.46142578125,20.9808349609375,12.847900390625,16.9677734375,-62.82442002442002,-2.249084249084249,-37.18485958485958,-1.56591796875,0.28173828125,1.50146484375,-24.2156982421875,-11.383056640625,6.988525390625,-10.195848595848595,-49.62979242979243,64.92356532356533,0.51611328125,2.39306640625,-0.25537109375,53.9703369140625,91.74346923828125,-47.4395751953125,-80.36727716727717,14.244200244200243,-23.24053724053724
36:30.277,0.720703125,1.92626953125,0.60009765625,20.9808349609375,12.847900390625,16.9677734375,-57.87643467643468,-34.93577533577533,-20.54163614163614,-1.82275390625,-0.06787109375,1.408203125,-9.3536376953125,-6.4849853515625,19.561767578125,2.998778998778999,-66.27301587301586,106.6065934065934,0.66748046875,1.875,0.4306640625,39.46685791015625,52.02484130859375,3.875732421875,-76.61880341880341,23.39047619047619,-30.737484737484735
36:31.203,0.48681640625,1.76513671875,0.76513671875,8.53729248046875,-11.63482666015625,7.27081298828125,-57.87643467643468,-34.93577533577533,-20.54163614163614,-1.82275390625,-0.06787109375,1.408203125,6.91986083984375,14.91546630859375,-22.7203369140625,32.536752136752135,-49.92967032967033,99.4095238095238,0.66748046875,1.875,0.4306640625,-250.0,110.0616455078125,18.7530517578125,-90.26324786324786,2.848840048840049,30.287667887667887
36:32.032,0.712890625,1.87890625,0.46875,-22.186279296875,-36.4990234375,26.42822265625,-65.37338217338217,-9.746031746031745,-1.0495726495726496,-1.70166015625,-0.236328125,1.1044921875,6.91986083984375,14.91546630859375,-22.7203369140625,9.146275946275946,-63.27423687423687,90.41318681318681,0.29443359375,3.23583984375,-0.7939453125,-250.0,110.0616455078125,18.7530517578125,-74.36971916971916,-6.897191697191697,48.43028083028083
36:33.056,0.79345703125,1.7578125,0.4248046875,27.3895263671875,52.5665283203125,45.166015625,-51.57899877899878,-16.793162393162394,-14.694017094017093,-1.3017578125,-0.06689453125,1.29052734375,-6.195068359375,1.07574462890625,9.368896484375,5.247863247863248,-71.82075702075701,78.11819291819292,0.4208984375,2.11865234375,-0.3623046875,85.70098876953125,-0.18310546875,-13.99993896484375,-66.42295482295482,-3.7484737484737485,45.28156288156288
36:33.885,0.53515625,1.67626953125,0.87353515625,10.4217529296875,28.45001220703125,-11.54327392578125,-26.539194139194137,-18.892307692307693,0.0,-1.458984375,-0.3916015625,1.08203125,-11.03973388671875,0.244140625,18.035888671875,5.247863247863248,-71.82075702075701,78.11819291819292,1.10693359375,2.29443359375,0.05224609375,27.5726318359375,-81.21490478515625,23.13232421875,-23.690354090354088,2.249084249084249,73.02026862026862
36:34.908,0.91650390625,2.10498046875,0.720703125,-13.6871337890625,-40.2984619140625,-41.83197021484375,-19.49206349206349,-14.993894993894994,11.545299145299145,-1.58154296875,0.29443359375,1.6015625,15.22064208984375,-17.44842529296875,-26.2451171875,9.895970695970696,-73.91990231990232,75.26935286935287,0.62548828125,2.10009765625,-0.515625,101.287841796875,-98.24371337890625,-9.08660888671875,-41.533089133089135,3.598534798534798,25.78949938949939
36:36.127,0.53369140625,1.33837890625,0.294921875,-16.6473388671875,-5.39398193359375,35.22491455078125,-23.24053724053724,-20.24175824175824,-6.447374847374848,-1.38037109375,0.20849609375,0.44921875,-49.6826171875,-24.383544921875,13.95416259765625,11.095482295482295,-77.36849816849816,79.01782661782661,0.1484375,2.71337890625,-0.455078125,-171.57745361328125,84.04541015625,27.74810791015625,-55.62735042735043,-2.548962148962149,68.37216117216117
36:37.151,0.751953125,1.90234375,0.7119140625,15.44952392578125,5.88226318359375,28.3355712890625,-13.794383394383393,-17.842735042735043,9.146275946275946,-1.46826171875,-0.05712890625,1.4794921875,41.351318359375,-14.22119140625,-68.450927734375,8.846398046398047,-82.01660561660562,70.02148962148962,0.4853515625,1.9658203125,-0.20068359375,17.6544189453125,-27.44293212890625,-8.81195068359375,8.246642246642246,-2.998778998778999,77.06862026862026
36:38.272,0.5556640625,1.763671875,0.46044921875,-17.64678955078125,-19.47784423828125,10.30731201171875,-11.395360195360196,-16.793162393162394,-1.4993894993894994,-1.4375,-0.3701171875,1.1142578125,60.00518798828125,13.580322265625,-46.79107666015625,7.197069597069596,-81.11697191697192,69.12185592185592,-0.09521484375,1.79931640625,1.8388671875,-27.91595458984375,-81.3751220703125,4.46319580078125,5.547741147741148,-1.0495726495726496,38.83418803418803
36:39.101,0.4990234375,1.72216796875,0.94873046875,6.05010986328125,-38.3148193359375,-68.24493408203125,-11.395360195360196,-16.793162393162394,-1.4993894993894994,-1.4375,-0.3701171875,1.1142578125,60.00518798828125,13.580322265625,-46.79107666015625,-1.6493284493284492,-68.52210012210011,45.13162393162393,-0.09521484375,1.79931640625,1.8388671875,88.90533447265625,-17.120361328125,-16.143798828125,-25.18974358974359,49.329914529914525,14.394139194139193
36:40.271,0.779296875,1.82763671875,0.53173828125,4.8828125,-62.92724609375,-58.563232421875,-23.84029304029304,10.495726495726496,-20.99145299145299,-2.0654296875,-0.2216796875,1.65771484375,11.383056640625,11.74163818359375,5.39398193359375,8.846398046398047,-67.02271062271062,41.533089133089135,0.63232421875,1.8623046875,0.541015625,36.18621826171875,17.76123046875,9.78851318359375,-12.145054945054945,56.97680097680097,35.985347985347985
36:41.148,0.73876953125,2.4580078125,0.9921875,8.6669921875,-36.19384765625,-55.0689697265625,-23.84029304029304,10.495726495726496,-20.99145299145299,-2.0654296875,-0.2216796875,1.65771484375,-1.983642578125,34.14154052734375,-4.69207763671875,18.142612942612942,-62.224664224664224,44.68180708180708,0.63232421875,1.8623046875,0.541015625,-226.98211669921875,91.63665771484375,-10.09368896484375,-76.76874236874237,41.38315018315018,-15.293772893772893
36:42.075,0.6337890625,1.99951171875,0.314453125,-12.48931884765625,-6.88934326171875,10.85662841796875,-23.24053724053724,20.09181929181929,-7.347008547008547,-1.92529296875,0.22314453125,1.24560546875,-1.983642578125,34.14154052734375,-4.69207763671875,21.29133089133089,-64.17387057387057,56.826862026862024,0.5927734375,3.08349609375,-0.9853515625,-226.98211669921875,91.63665771484375,-10.09368896484375,-41.08327228327228,30.437606837606836,29.088156288156288
36:42.903,0.83642578125,1.82470703125,0.25927734375,21.331787109375,6.99615478515625,3.753662109375,-32.686691086691084,10.495726495726496,-13.194627594627594,-1.11962890625,0.08740234375,1.3359375,9.59014892578125,8.93402099609375,13.89312744140625,18.59242979242979,-62.224664224664224,56.377045177045176,0.37744140625,1.9873046875,-0.06640625,58.074951171875,-13.5345458984375,-8.72039794921875,-36.88498168498168,36.435164835164834,5.547741147741148
36:43.830,0.71337890625,1.65869140625,0.662109375,30.120849609375,54.10003662109375,-26.397705078125,-28.338461538461537,9.146275946275946,-6.897191697191697,-1.3251953125,-0.21044921875,1.287109375,-43.02978515625,-2.9144287109375,52.1697998046875,18.59242979242979,-62.224664224664224,56.377045177045176,0.44482421875,2.73828125,0.56103515625,48.33221435546875,62.896728515625,7.781982421875,-36.88498168498168,36.435164835164834,5.547741147741148
36:44.707,0.9501953125,2.28857421875,0.490234375,-16.0980224609375,-59.45587158203125,-94.97833251953125,-44.53186813186813,7.047130647130647,-26.389255189255188,-1.767578125,0.12353515625,1.60107421875,11.04736328125,24.16229248046875,-29.4036865234375,17.992673992673993,-59.825641025641026,56.826862026862024,0.333984375,1.95068359375,-0.60888671875,87.738037109375,-78.5369873046875,4.0130615234375,-84.7155067155067,34.186080586080585,-12.145054945054945
36:45.585,0.52734375,1.3388671875,0.35986328125,-24.322509765625,-16.88385009765625,95.2301025390625,-59.07594627594627,10.045909645909646,-35.38559218559219,-1.26171875,0.32421875,0.6044921875,-20.660400390625,11.51275634765625,12.19940185546875,16.193406593406593,-55.77728937728938,72.27057387057387,0.52490234375,2.04345703125,0.1669921875,20.53070068359375,-30.50994873046875,-1.86920166015625,-47.380708180708176,45.88131868131868,-33.28644688644688
36:46.608,1.0029296875,1.90576171875,0.44091796875,33.4320068359375,96.85516357421875,39.6728515625,-71.07106227106227,-16.343345543345542,-63.27423687423687,-1.4560546875,-0.00341796875,1.24609375,-87.08953857421875,-21.453857421875,83.587646484375,-1.1995115995115995,-53.228327228327224,79.31770451770451,1.50244140625,1.88671875,0.27734375,-78.13262939453125,249.99237060546875,-122.5738525390625,-91.16288156288157,18.892307692307693,-15.593650793650793
36:47.583,0.6611328125,1.9599609375,0.4287109375,23.895263671875,68.0084228515625,35.308837890625,-59.825641025641026,-7.047130647130647,-23.39047619047619,-1.3369140625,0.333984375,1.3349609375,-31.1126708984375,-5.08880615234375,21.93450927734375,-4.048351648351648,-53.228327228327224,77.51843711843712,0.2138671875,2.21435546875,-0.2412109375,66.35284423828125,-15.960693359375,-43.243408203125,-72.27057387057387,28.188522588522588,-20.69157509157509
36:48.363,0.6611328125,1.9599609375,0.4287109375,23.895263671875,68.0084228515625,35.308837890625,-66.42295482295482,-24.29010989010989,-29.687912087912085,-1.8310546875,0.15283203125,1.50830078125,-31.79931640625,9.002685546875,46.71478271484375,10.945543345543346,-60.425396825396824,100.9089133089133,0.591796875,1.89990234375,0.44677734375,43.02215576171875,70.94573974609375,24.47509765625,-73.47008547008546,20.69157509157509,-28.488400488400487
36:49.143,0.74853515625,2.03857421875,0.732421875,15.533447265625,40.008544921875,26.95465087890625,-66.42295482295482,-24.29010989010989,-29.687912087912085,-1.8310546875,0.15283203125,1.50830078125,1.93023681640625,-44.04449462890625,-45.95947265625,30.287667887667887,-49.92967032967033,99.7094017094017,0.591796875,1.89990234375,0.44677734375,-68.99261474609375,-11.0626220703125,8.72039794921875,-98.809768009768,1.4993894993894994,33.58632478632479
36:49.972,1.00732421875,2.8154296875,0.65771484375,3.2806396484375,-104.04205322265625,-115.4022216796875,-70.17142857142856,-1.1995115995115995,-6.147496947496947,-2.03564453125,-0.14208984375,1.4140625,1.93023681640625,-44.04449462890625,-45.95947265625,30.287667887667887,-49.92967032967033,99.7094017094017,0.3134765625,1.28076171875,0.13916015625,-68.99261474609375,-11.0626220703125,8.72039794921875,-98.809768009768,1.4993894993894994,33.58632478632479
36:50.801,0.658203125,2.11279296875,0.732421875,25.96282958984375,46.85211181640625,5.828857421875,-57.57655677655677,-10.345787545787545,-21.14139194139194,-1.45458984375,0.05908203125,1.1455078125,-4.20379638671875,-25.4974365234375,5.9814453125,8.846398046398047,-60.72527472527472,86.21489621489621,0.533203125,2.04345703125,0.23779296875,48.1414794921875,-37.5823974609375,-0.75531005859375,-103.3079365079365,1.0495726495726496,-46.18119658119658
36:51.581,0.69482421875,1.85595703125,0.298828125,-34.271240234375,-5.0811767578125,-4.26483154296875,-28.488400488400487,-17.692796092796094,9.596092796092796,-1.4609375,-0.04541015625,1.00732421875,4.5928955078125,9.43756103515625,-21.3623046875,10.045909645909646,-68.67203907203907,82.91623931623931,-0.73779296875,2.62646484375,-0.2333984375,-221.099853515625,43.11370849609375,65.52886962890625,-55.47741147741147,-1.6493284493284492,68.82197802197803
36:52.361,0.69482421875,1.85595703125,0.298828125,-34.271240234375,-5.0811767578125,-4.26483154296875,-19.49206349206349,-20.39169719169719,7.047130647130647,-1.42138671875,-0.0224609375,1.2509765625,20.0958251953125,-22.125244140625,-24.13177490234375,2.399023199023199,-76.31892551892551,76.16898656898657,0.47509765625,1.99365234375,-0.076171875,54.5654296875,-4.6539306640625,-4.28009033203125,-58.176312576312576,-1.1995115995115995,36.88498168498168
36:53.238,0.7900390625,1.91552734375,0.25390625,-40.85540771484375,-44.8150634765625,-33.91265869140625,-19.49206349206349,-20.39169719169719,7.047130647130647,-1.4453125,-0.2080078125,1.361328125,-46.30279541015625,5.34820556640625,40.3594970703125,5.547741147741148,-75.11941391941392,72.87032967032967,0.0927734375,1.66552734375,-0.9228515625,62.9425048828125,3.570556640625,10.47515869140625,-28.788278388278385,-1.3494505494505493,61.47496947496947
36:54.067,0.58447265625,1.77001953125,0.74072265625,29.38079833984375,59.4024658203125,-14.25933837890625,-18.29255189255189,-19.791941391941393,7.197069597069596,-1.4453125,-0.2080078125,1.361328125,-46.30279541015625,5.34820556640625,40.3594970703125,8.096703296703296,-76.91868131868132,74.21978021978022,0.0927734375,1.66552734375,-0.9228515625,104.49981689453125,-71.41876220703125,-15.22064208984375,-34.93577533577533,4.498168498168498,92.96214896214896
36:54.945,0.6015625,1.708984375,0.76953125,2.9449462890625,-7.10296630859375,-44.02923583984375,-21.59120879120879,-17.093040293040293,-6.147496947496947,-1.3955078125,0.08154296875,1.55908203125,24.7344970703125,-17.99774169921875,-26.55029296875,7.946764346764346,-78.86788766788767,72.72039072039071,0.49560546875,2.09033203125,-0.70458984375,42.76275634765625,-46.3409423828125,2.0294189453125,-65.22344322344323,-2.0991452991452992,39.883760683760684
36:55.968,0.7021484375,2.36181640625,0.6826171875,-12.51220703125,12.87841796875,-10.47515869140625,-1.1995115995115995,-14.993894993894994,16.343345543345542,-1.8876953125,0.0185546875,1.17041015625,0.4425048828125,-47.7447509765625,-3.3416748046875,7.946764346764346,-78.86788766788767,72.72039072039071,0.7294921875,2.01953125,0.29833984375,42.76275634765625,-46.3409423828125,2.0294189453125,5.397802197802197,6.147496947496947,48.13040293040293
36:56.846,0.6025390625,1.8798828125,0.3466796875,-68.05419921875,-113.16680908203125,-27.25982666015625,-13.344566544566543,-9.895970695970696,-2.249084249084249,-1.60400390625,-0.25,1.1064453125,69.77081298828125,3.04412841796875,-62.88909912109375,13.644444444444444,-78.56800976800976,68.52210012210011,-0.75244140625,1.96484375,-0.609375,-60.1654052734375,-93.31512451171875,42.816162109375,5.397802197802197,6.147496947496947,48.13040293040293
36:57.772,0.6201171875,1.861328125,0.5478515625,-12.03155517578125,8.1329345703125,34.06524658203125,-22.34090354090354,-5.697680097680098,-19.19218559218559,-1.41943359375,0.00244140625,1.36376953125,23.2391357421875,6.18743896484375,-29.8919677734375,5.397802197802197,-75.56923076923077,65.67326007326007,0.6044921875,1.9560546875,0.00439453125,1.62506103515625,-34.72137451171875,11.7340087890625,-2.249084249084249,28.93821733821734,43.18241758241758
36:58.796,0.6845703125,1.541015625,0.68994140625,-29.083251953125,-76.04217529296875,33.3404541015625,-20.841514041514042,0.5997557997557997,-20.54163614163614,-1.08935546875,0.15185546875,1.2529296875,24.7344970703125,-13.4124755859375,-14.99176025390625,1.3494505494505493,-71.52087912087912,49.479853479853475,0.10107421875,2.28857421875,-0.6083984375,-156.36444091796875,19.26422119140625,-9.65118408203125,1.4993894993894994,42.88253968253968,52.17875457875458
36:59.674,0.6806640625,1.53125,0.5,27.4200439453125,14.99176025390625,24.9176025390625,-25.03980463980464,9.146275946275946,-15.443711843711844,-1.16064453125,0.42138671875,1.47705078125,13.5498046875,-1.1749267578125,-14.80865478515625,12.594871794871795,-66.12307692307692,48.73015873015873,0.33984375,2.18994140625,-0.31591796875,73.20404052734375,-16.91436767578125,-17.89093017578125,-62.52454212454212,35.68547008547009,-28.338461538461537
37:00.453,0.6806640625,1.53125,0.5,1.3427734375,1.3275146484375,-2.2125244140625,-34.336019536019535,3.1487179487179486,-20.841514041514042,-1.16748046875,-0.01708984375,1.51318359375,-8.85009765625,-0.43487548828125,16.25823974609375,10.045909645909646,-64.62368742368741,48.43028083028083,0.33349609375,2.0966796875,0.41845703125,44.0216064453125,47.52349853515625,22.8271484375,-46.78095238095238,40.33357753357753,-26.08937728937729
37:01.233,0.81640625,1.6640625,0.822265625,1.3427734375,1.3275146484375,-2.2125244140625,-34.336019536019535,3.1487179487179486,-20.841514041514042,-1.99560546875,0.296875,1.87646484375,-32.73773193359375,-6.41632080078125,7.3089599609375,11.995115995115995,-62.97435897435897,55.32747252747252,0.265625,1.337890625,-0.24169921875,-88.3026123046875,63.751220703125,-74.3255615234375,-39.583882783882785,31.936996336996337,25.639560439560437
37:02.257,1.10009765625,2.40966796875,0.59228515625,11.26861572265625,12.04681396484375,-12.8936767578125,-34.336019536019535,5.247863247863248,-18.44249084249084,-1.59765625,0.173828125,1.27734375,2.685546875,-18.25714111328125,5.79833984375,16.343345543345542,-64.77362637362637,55.62735042735043,0.63330078125,1.9990234375,0.03955078125,29.39605712890625,-29.38079833984375,0.732421875,-28.93821733821734,37.934554334554335,-1.4993894993894994
37:03.037,0.85009765625,1.814453125,0.404296875,-4.6539306640625,30.25054931640625,-2.83050537109375,-32.386813186813185,8.996336996336996,-14.244200244200243,-1.59765625,0.173828125,1.27734375,2.685546875,-18.25714111328125,5.79833984375,8.396581196581197,-60.72527472527472,58.77606837606837,0.63330078125,1.9990234375,0.03955078125,-3.509521484375,-86.883544921875,7.20977783203125,-68.67203907203907,30.287667887667887,-29.687912087912085
37:03.964,0.58203125,1.48583984375,0.60302734375,13.43536376953125,-9.2926025390625,-5.18798828125,-49.92967032967033,4.048351648351648,-31.936996336996337,-1.3837890625,-0.10595703125,1.109375,6.21795654296875,19.23370361328125,-0.640869140625,8.396581196581197,-60.72527472527472,58.77606837606837,0.63623046875,1.57470703125,-1.546875,-3.509521484375,-86.883544921875,7.20977783203125,-68.67203907203907,30.287667887667887,-29.687912087912085
37:04.987,0.62255859375,1.208984375,0.74560546875,8.14056396484375,-5.34820556640625,-34.90447998046875,-59.07594627594627,10.045909645909646,-22.34090354090354,-1.2685546875,0.33642578125,1.19921875,-76.80511474609375,-5.55419921875,55.01556396484375,-7.796825396825397,-46.78095238095238,70.02148962148962,0.14697265625,2.46826171875,-0.16455078125,5.3863525390625,54.6875,21.73614501953125,-78.86788766788767,27.588766788766787,-42.88253968253968
37:06.011,0.83935546875,1.89404296875,0.5634765625,-5.462646484375,36.76605224609375,21.65985107421875,-35.53553113553114,-38.68424908424908,-1.6493284493284492,-1.638671875,0.09619140625,1.4638671875,-76.80511474609375,-5.55419921875,55.01556396484375,-7.796825396825397,-46.78095238095238,70.02148962148962,0.0751953125,2.09033203125,0.189453125,5.3863525390625,54.6875,21.73614501953125,-82.16654456654456,21.14139194139194,-11.395360195360196
37:06.888,0.6962890625,1.77880859375,0.57177734375,78.2928466796875,118.2098388671875,23.56719970703125,-58.326251526251525,-2.249084249084249,-21.59120879120879,-1.4609375,0.27392578125,1.32763671875,-20.42388916015625,-19.8822021484375,6.11114501953125,1.1995115995115995,-53.37826617826617,73.62002442002442,0.82666015625,2.474609375,-0.216796875,24.40643310546875,73.24981689453125,-72.3419189453125,-82.16654456654456,21.14139194139194,-11.395360195360196
37:07.815,0.64404296875,2.3662109375,0.6552734375,-1.24359130859375,-0.54168701171875,20.88165283203125,-45.88131868131868,-39.883760683760684,-7.197069597069596,-2.0263671875,-0.2138671875,1.5078125,-8.5296630859375,-11.02447509765625,4.8370361328125,2.998778998778999,-60.72527472527472,94.31159951159951,0.4384765625,2.0087890625,0.29736328125,65.95611572265625,-45.12786865234375,11.5203857421875,-73.17020757020757,29.83785103785104,-27.88864468864469
37:08.595,0.90380859375,1.8291015625,0.72998046875,-10.55908203125,-19.03533935546875,21.90399169921875,-67.92234432234432,-7.047130647130647,-8.096703296703296,-1.61962890625,0.0810546875,1.28466796875,-22.07183837890625,-7.171630859375,11.66534423828125,32.536752136752135,-49.62979242979243,100.75897435897436,0.21044921875,2.51806640625,-0.6552734375,-159.9273681640625,106.7657470703125,-0.3662109375,-99.4095238095238,-2.0991452991452992,20.69157509157509
37:09.375,0.90380859375,1.8291015625,0.72998046875,-10.55908203125,-19.03533935546875,21.90399169921875,-39.883760683760684,-19.64200244200244,-5.847619047619047,-1.27197265625,0.1767578125,1.30419921875,29.0069580078125,-6.317138671875,-18.12744140625,11.845177045177044,-65.37338217338217,88.46398046398046,0.37109375,2.79443359375,-0.22265625,99.60174560546875,-10.42938232421875,-24.87945556640625,-54.427838827838826,0.8996336996336995,81.71672771672772
37:10.252,0.779296875,1.60107421875,0.7314453125,-2.227783203125,-2.18963623046875,15.2435302734375,-39.883760683760684,-19.64200244200244,-5.847619047619047,-1.3896484375,-0.33154296875,1.51513671875,10.85662841796875,-7.62939453125,-11.4898681640625,5.247863247863248,-72.42051282051281,78.11819291819292,0.55712890625,2.04931640625,0.42626953125,43.52569580078125,-50.9490966796875,22.66693115234375,-67.17264957264958,0.0,34.186080586080585
37:11.081,0.603515625,1.55712890625,0.65673828125,-2.46429443359375,-30.05218505859375,-10.6964111328125,-19.34212454212454,-19.19218559218559,11.695238095238095,-1.3896484375,-0.33154296875,1.51513671875,10.85662841796875,-7.62939453125,-11.4898681640625,4.947985347985348,-76.31892551892551,74.81953601953602,0.55712890625,2.04931640625,0.42626953125,43.52569580078125,-50.9490966796875,22.66693115234375,-25.93943833943834,6.597313797313797,67.77240537240537
37:12.007,0.87744140625,1.28515625,0.58642578125,-26.0772705078125,-75.37841796875,-28.4423828125,-21.29133089133089,-20.39169719169719,-0.7496947496947497,-1.49462890625,-0.15185546875,0.54931640625,-10.55145263671875,-7.65228271484375,-8.1787109375,2.399023199023199,-77.36849816849816,72.27057387057387,0.53125,1.9990234375,-0.03857421875,46.9207763671875,-9.9029541015625,-3.99017333984375,-68.37216117216117,8.096703296703296,8.546520146520146
37:13.226,0.6982421875,1.98876953125,0.2919921875,10.59722900390625,87.921142578125,38.7420654296875,-25.93943833943834,-19.19218559218559,-12.894749694749695,-1.39892578125,-0.03759765625,1.29052734375,-29.083251953125,13.3819580078125,25.9552001953125,11.845177045177044,-80.06739926739927,75.41929181929181,0.53125,1.9990234375,-0.03857421875,-10.64300537109375,237.579345703125,20.9503173828125,-42.28278388278388,0.0,84.4156288156288
37:14.006,0.58642578125,1.76953125,0.744140625,26.98516845703125,41.9769287109375,7.049560546875,-11.395360195360196,-16.043467643467643,8.846398046398047,-1.44580078125,-0.15478515625,1.3212890625,79.742431640625,-6.23321533203125,-73.89068603515625,10.645665445665445,-79.01782661782661,68.97191697191697,0.7294921875,0.59033203125,0.41650390625,4.89044189453125,-39.16168212890625,-22.8424072265625,-1.6493284493284492,9.146275946275946,33.58632478632479
37:15.984,0.689453125,1.876953125,0.88427734375,-16.7694091796875,-55.908203125,60.69183349609375,-10.195848595848595,-11.245421245421245,-3.2986568986568985,-1.58154296875,-0.095703125,1.03173828125,54.11529541015625,-32.44781494140625,-46.65374755859375,4.498168498168498,-76.91868131868132,64.77362637362637,0.5302734375,1.9921875,0.03369140625,5.30242919921875,-47.2259521484375,7.39288330078125,-2.249084249084249,6.747252747252747,37.634676434676436
37:16.784,0.79931640625,1.91845703125,0.65673828125,-22.40753173828125,-31.219482421875,40.008544921875,-18.892307692307693,8.246642246642246,-19.941880341880342,-1.75341796875,-0.0244140625,1.36083984375,-4.119873046875,3.0517578125,-16.8304443359375,1.0495726495726496,-69.42173382173382,42.13284493284493,0.08544921875,2.75439453125,-0.615234375,-206.8328857421875,50.69732666015625,6.622314453125,4.498168498168498,49.030036630036626,49.62979242979243
37:17.614,0.89599609375,1.599609375,0.41162109375,3.85284423828125,8.96453857421875,93.89495849609375,-24.739926739926737,10.645665445665445,-13.644444444444444,-1.3115234375,0.29052734375,1.3681640625,33.63800048828125,0.83160400390625,-10.223388671875,16.793162393162394,-65.82319902319902,46.78095238095238,0.39697265625,2.25341796875,-0.29638671875,75.64544677734375,-12.2528076171875,-22.19390869140625,-63.724053724053725,42.88253968253968,-22.94065934065934
37:18.491,0.7578125,1.84765625,0.70068359375,-5.2337646484375,-1.4190673828125,28.12957763671875,-34.036141636141636,1.1995115995115995,-21.741147741147742,-1.2763671875,-0.0673828125,1.62548828125,-11.4593505859375,-25.390625,8.6517333984375,12.444932844932845,-64.47374847374847,47.53064713064713,0.4384765625,2.0087890625,0.5,42.9534912109375,-13.5955810546875,28.72467041015625,-57.57655677655677,38.53431013431013,-23.99023199023199
37:19.320,0.7578125,1.84765625,0.70068359375,-5.2337646484375,-1.4190673828125,28.12957763671875,-33.73626373626374,9.296214896214895,-14.843956043956043,-1.3876953125,0.142578125,0.70703125,-33.3709716796875,-37.23907470703125,16.082763671875,13.494505494505495,-63.724053724053725,55.32747252747252,0.06787109375,1.3876953125,-0.28515625,-180.65643310546875,84.38873291015625,-40.01617431640625,-52.628571428571426,35.985347985347985,0.14993894993894993
37:20.344,0.806640625,1.51025390625,0.59375,13.0767822265625,45.196533203125,42.09136962890625,-39.733821733821735,7.946764346764346,-25.18974358974359,-1.57275390625,0.18408203125,1.248046875,20.82061767578125,-1.678466796875,-17.38739013671875,17.692796092796094,-61.32503052503052,62.52454212454212,0.58642578125,1.9814453125,0.1142578125,28.961181640625,-28.43475341796875,-4.64630126953125,-42.43272283272283,34.78583638583638,-13.494505494505495
37:21.124,0.80126953125,1.80078125,0.25830078125,-10.3302001953125,31.646728515625,15.625,-39.733821733821735,7.946764346764346,-25.18974358974359,-1.57275390625,0.18408203125,1.248046875,-64.75830078125,-1.708984375,85.50262451171875,12.894749694749695,-57.27667887667887,66.27301587301586,0.58642578125,1.9814453125,0.1142578125,-106.37664794921875,185.81390380859375,-14.923095703125,-80.66715506715506,34.186080586080585,-37.18485958485958
37:22.196,0.69189453125,1.67822265625,0.30224609375,55.8929443359375,102.8594970703125,39.2303466796875,-52.928449328449325,-1.1995115995115995,-21.59120879120879,-1.20361328125,-0.04931640625,1.3232421875,-61.2030029296875,-29.27398681640625,64.1021728515625,6.147496947496947,-60.57533577533577,89.51355311355312,1.796875,1.64306640625,0.48291015625,29.09088134765625,-24.35302734375,-52.95562744140625,-102.4083028083028,25.78949938949939,-34.485958485958484
37:22.976,0.8095703125,1.8212890625,-0.08349609375,-4.66156005859375,82.35931396484375,31.95953369140625,-65.52332112332113,-16.943101343101343,-48.28034188034188,-1.5771484375,0.44091796875,1.02490234375,-61.2030029296875,-29.27398681640625,64.1021728515625,6.147496947496947,-60.57533577533577,89.51355311355312,-0.08447265625,2.037109375,0.17236328125,29.09088134765625,-24.35302734375,-52.95562744140625,-102.4083028083028,25.78949938949939,-34.485958485958484
37:23.805,0.75439453125,1.759765625,0.7197265625,5.51605224609375,-10.772705078125,5.0811767578125,-76.16898656898657,-15.443711843711844,-22.64078144078144,-1.51416015625,-0.337890625,1.03271484375,-36.87286376953125,9.20867919921875,26.35955810546875,23.84029304029304,-50.37948717948718,96.26080586080586,0.30908203125,1.81640625,0.69384765625,34.81292724609375,40.96221923828125,25.8941650390625,-105.25714285714285,16.343345543345542,-25.33968253968254
37:24.634,0.9814453125,1.96533203125,0.87255859375,-8.1634521484375,-1.9073486328125,-23.81134033203125,-54.12796092796093,-11.995115995115995,-15.593650793650793,-1.478515625,0.16748046875,1.52294921875,1.60980224609375,-17.66204833984375,2.7618408203125,10.195848595848595,-59.22588522588522,82.31648351648352,0.6552734375,2.12255859375,-0.70166015625,112.9913330078125,18.92852783203125,-25.91705322265625,-65.07350427350427,-5.097924297924298,80.51721611721611
37:25.511,0.95751953125,1.46728515625,1.43017578125,-50.94146728515625,27.76336669921875,-20.57647705078125,-39.583882783882785,-12.894749694749695,-10.345787545787545,-1.33154296875,-0.048828125,0.68603515625,27.557373046875,-62.72125244140625,-26.87835693359375,4.048351648351648,-71.37094017094017,77.06862026862026,0.685546875,1.94970703125,0.03271484375,39.13116455078125,-39.86358642578125,-5.25665283203125,-86.66471306471306,0.5997557997557997,-13.344566544566543
37:26.340,0.95751953125,1.46728515625,1.43017578125,-50.94146728515625,27.76336669921875,-20.57647705078125,-18.59242979242979,-16.64322344322344,15.443711843711844,-1.30712890625,0.00732421875,1.39404296875,-12.48931884765625,-4.85992431640625,17.1661376953125,10.795604395604395,-75.56923076923077,80.06739926739927,0.00830078125,2.60595703125,-0.82861328125,-211.4105224609375,-0.5950927734375,20.965576171875,-41.38315018315018,-3.4485958485958483,55.62735042735043
37:27.217,0.958984375,1.69775390625,0.47802734375,-12.04681396484375,-156.51702880859375,-11.51275634765625,-18.59242979242979,-16.64322344322344,15.443711843711844,-1.30712890625,0.00732421875,1.39404296875,37.48321533203125,0.396728515625,-21.78192138671875,-0.4498168498168498,-76.76874236874237,67.47252747252747,0.1806640625,2.78515625,0.02001953125,100.63934326171875,-38.09356689453125,-38.63525390625,-50.07960927960928,10.195848595848595,51.72893772893773
37:28.290,0.5498046875,1.603515625,0.56005859375,1.04522705078125,-6.09588623046875,11.95526123046875,-8.696459096459096,-18.44249084249084,8.246642246642246,-1.8603515625,-0.2744140625,1.92529296875,-13.1378173828125,-3.68499755859375,14.42718505859375,4.648107448107448,-81.86666666666666,72.72039072039071,0.6298828125,1.99755859375,0.28369140625,52.91748046875,67.00897216796875,10.4827880859375,-73.02026862026862,0.0,7.946764346764346
37:29.167,0.76708984375,2.3349609375,0.90185546875,-8.91876220703125,-10.955810546875,-23.4832763671875,-8.696459096459096,-18.44249084249084,8.246642246642246,-1.8603515625,-0.2744140625,1.92529296875,82.4737548828125,10.79559326171875,-81.88629150390625,8.396581196581197,-82.01660561660562,72.42051282051281,0.6298828125,1.99755859375,0.28369140625,-17.98248291015625,-250.0,143.59283447265625,11.545299145299145,-9.895970695970696,73.62002442002442
37:29.948,1.0126953125,1.6416015625,0.1162109375,-58.90655517578125,-182.56378173828125,-35.125732421875,-13.794383394383393,-16.49328449328449,-6.897191697191697,-1.2724609375,0.00439453125,1.11376953125,82.4737548828125,10.79559326171875,-81.88629150390625,8.396581196581197,-82.01660561660562,72.42051282051281,-1.111328125,2.03125,0.26220703125,-17.98248291015625,-250.0,143.59283447265625,11.545299145299145,-9.895970695970696,73.62002442002442
37:30.825,0.5458984375,1.90869140625,0.7099609375,-24.7650146484375,-16.10565185546875,71.46453857421875,-28.788278388278385,-6.297435897435897,-34.635897435897434,-1.60205078125,-0.0126953125,1.21875,7.9193115234375,7.02667236328125,-24.688720703125,-5.397802197802197,-76.16898656898657,52.778510378510376,0.51220703125,1.9736328125,-0.0751953125,5.3558349609375,-41.4276123046875,13.336181640625,2.399023199023199,31.037362637362637,13.494505494505495
37:31.751,0.70703125,1.51220703125,0.48388671875,3.39508056640625,-0.03814697265625,52.71148681640625,-26.23931623931624,11.395360195360196,-23.99023199023199,-1.18701171875,-0.06298828125,1.19677734375,-5.4931640625,4.180908203125,2.28118896484375,8.246642246642246,-63.873992673992674,42.43272283272283,0.197265625,2.0185546875,-0.50048828125,-124.54986572265625,45.3643798828125,2.08282470703125,-4.798046398046398,50.52942612942613,13.494505494505495
37:32.531,0.623046875,1.36669921875,0.86474609375,13.6566162109375,43.76220703125,-2.66265869140625,-28.93821733821734,12.444932844932845,-10.345787545787545,-1.158203125,0.09814453125,1.35693359375,29.4342041015625,7.24029541015625,-29.74700927734375,17.992673992673993,-64.62368742368741,51.279120879120875,0.06884765625,3.06396484375,0.27978515625,116.790771484375,-57.22808837890625,-20.0347900390625,-79.01782661782661,35.08571428571428,4.498168498168498
37:33.311,0.623046875,1.36669921875,0.86474609375,13.6566162109375,43.76220703125,-2.66265869140625,-36.435164835164834,3.4485958485958483,-16.043467643467643,-2.34326171875,-0.052734375,2.02197265625,-40.34423828125,8.1329345703125,11.3067626953125,21.29133089133089,-66.42295482295482,57.87643467643468,0.298828125,2.0029296875,0.408203125,50.2166748046875,-17.8680419921875,4.8980712890625,-60.57533577533577,28.638339438339436,-7.946764346764346
