time,hand_accelerometer_x,hand_accelerometer_y,hand_accelerometer_z,hand_gyroscope_x,hand_gyroscope_y,hand_gyroscope_z,hand_magnetometer_x,hand_magnetometer_y,hand_magnetometer_z,ankle_accelerometer_x,ankle_accelerometer_y,ankle_accelerometer_z,ankle_gyroscope_x,ankle_gyroscope_y,ankle_gyroscope_z,ankle_magnetometer_x,ankle_magnetometer_y,ankle_magnetometer_z,chest_accelerometer_x,chest_accelerometer_y,chest_accelerometer_z,chest_gyroscope_x,chest_gyroscope_y,chest_gyroscope_z,chest_magnetometer_x,chest_magnetometer_y,chest_magnetometer_z
45:19.122,0.86376953125,0.00927734375,1.849609375,-1.068115234375,1.0528564453125,0.18310546875,16.193406593406593,-30.287667887667887,51.72893772893773,-0.13916015625,2.01806640625,0.0556640625,-2.92205810546875,0.43487548828125,1.373291015625,-42.58266178266178,-113.2039072039072,-1.9492063492063492,-0.0009765625,1.5341796875,-1.2880859375,-0.98419189453125,0.9918212890625,1.68609619140625,-100.75897435897436,-14.843956043956043,-24.88986568986569
45:19.951,0.84912109375,0.005859375,1.88623046875,-1.0223388671875,2.2430419921875,0.244140625,19.49206349206349,-30.587545787545785,52.628571428571426,-0.14306640625,2.0244140625,0.06591796875,-3.0975341796875,0.4425048828125,0.95367431640625,-40.93333333333333,-113.35384615384615,-3.598534798534798,-0.0009765625,1.53857421875,-1.2880859375,-0.93841552734375,0.9613037109375,1.77764892578125,-100.3091575091575,-13.794383394383393,-25.93943833943834
45:20.732,0.84912109375,0.005859375,1.88623046875,-1.0223388671875,2.2430419921875,0.244140625,19.19218559218559,-30.887423687423688,52.17875457875458,-0.11962890625,2.0263671875,0.0830078125,-3.2958984375,0.518798828125,1.35040283203125,-42.43272283272283,-112.3042735042735,-1.799267399267399,-0.00634765625,1.53955078125,-1.29638671875,-1.22833251953125,0.90789794921875,1.4495849609375,-101.20879120879121,-13.344566544566543,-25.33968253968254
45:21.511,0.869140625,-0.00146484375,1.8857421875,-1.220703125,0.03814697265625,0.09918212890625,19.19218559218559,-30.887423687423688,52.17875457875458,-0.11962890625,2.0263671875,0.0830078125,-3.2958984375,0.518798828125,1.35040283203125,-40.93333333333333,-112.3042735042735,-3.598534798534798,-0.00634765625,1.53955078125,-1.29638671875,-1.007080078125,0.91552734375,1.5716552734375,-99.1096459096459,-14.694017094017093,-24.29010989010989
45:22.340,0.8515625,-0.00732421875,1.88916015625,-1.44195556640625,1.60980224609375,-0.0762939453125,18.44249084249084,-31.637118437118435,50.829304029304026,-0.1298828125,2.03369140625,0.064453125,-2.67791748046875,0.396728515625,0.31280517578125,-40.93333333333333,-112.3042735042735,-3.598534798534798,-0.00634765625,1.52978515625,-1.29833984375,-1.007080078125,0.91552734375,1.5716552734375,-99.1096459096459,-14.694017094017093,-24.29010989010989
45:23.120,0.86865234375,-0.00341796875,1.8681640625,-1.2054443359375,1.53350830078125,-0.274658203125,18.59242979242979,-31.037362637362637,52.47863247863248,-0.13525390625,2.03173828125,0.060546875,-2.9754638671875,0.3204345703125,0.86212158203125,-41.683028083028084,-112.3042735042735,-2.249084249084249,-0.009765625,1.5419921875,-1.29443359375,-0.823974609375,0.7171630859375,1.6326904296875,-100.3091575091575,-13.794383394383393,-24.14017094017094
45:23.949,0.84814453125,-0.0009765625,1.87158203125,-0.8392333984375,0.946044921875,0.49591064453125,19.19218559218559,-30.887423687423688,51.57899877899878,-0.13134765625,2.02392578125,0.05224609375,-3.0364990234375,-0.35858154296875,1.18255615234375,-41.38315018315018,-112.6041514041514,-4.648107448107448,0.0107421875,1.53173828125,-1.29052734375,-0.7171630859375,0.6561279296875,1.83868408203125,-100.3091575091575,-15.293772893772893,-24.14017094017094
45:24.778,0.84814453125,-0.0009765625,1.87158203125,-1.45721435546875,0.83160400390625,0.30517578125,18.29255189255189,-30.287667887667887,52.02881562881563,-0.125,2.03759765625,0.07763671875,-3.90625,-0.091552734375,1.1749267578125,-41.832967032967034,-110.2051282051282,-2.998778998778999,-0.01123046875,1.53369140625,-1.2861328125,-1.1749267578125,0.8544921875,1.83868408203125,-100.75897435897436,-14.244200244200243,-25.18974358974359
45:25.607,0.87109375,-0.001953125,1.86865234375,-1.45721435546875,0.83160400390625,0.30517578125,18.29255189255189,-30.287667887667887,52.02881562881563,-0.125,2.03759765625,0.07763671875,-1.73187255859375,0.03814697265625,0.54931640625,-42.28278388278388,-113.95360195360195,-2.998778998778999,-0.01123046875,1.53369140625,-1.2861328125,-0.91552734375,0.8087158203125,2.0599365234375,-100.3091575091575,-14.244200244200243,-24.14017094017094
45:26.387,0.87548828125,0.00439453125,1.85986328125,-1.0833740234375,1.28936767578125,-0.05340576171875,17.692796092796094,-31.637118437118435,51.57899877899878,-0.1318359375,2.021484375,0.06640625,-1.73187255859375,0.03814697265625,0.54931640625,-42.28278388278388,-113.95360195360195,-2.998778998778999,-0.00244140625,1.533203125,-1.2998046875,-0.91552734375,0.8087158203125,2.0599365234375,-100.3091575091575,-14.244200244200243,-24.14017094017094
45:27.167,0.86572265625,0.00537109375,1.87890625,-0.31280517578125,3.387451171875,-0.31280517578125,18.892307692307693,-30.737484737484735,49.62979242979243,-0.13623046875,2.03125,0.04638671875,-3.47137451171875,0.03814697265625,0.78582763671875,-40.78339438339438,-112.75409035409035,-1.9492063492063492,-0.0068359375,1.53369140625,-1.28466796875,-0.9918212890625,0.8087158203125,1.7547607421875,-101.65860805860805,-13.344566544566543,-24.29010989010989
45:27.996,0.86083984375,0.01416015625,1.8779296875,-1.251220703125,1.30462646484375,-0.00762939453125,17.093040293040293,-31.936996336996337,51.87887667887668,-0.1357421875,2.0341796875,0.05419921875,-3.1280517578125,0.0152587890625,0.96893310546875,-41.08327228327228,-111.4046398046398,-2.998778998778999,0.00146484375,1.537109375,-1.30078125,-0.91552734375,0.762939453125,1.77001953125,-101.20879120879121,-13.944322344322345,-24.739926739926737
45:28.824,0.86083984375,0.01416015625,1.8779296875,-1.19781494140625,0.74005126953125,-0.34332275390625,17.242979242979242,-31.037362637362637,51.72893772893773,-0.119140625,2.01806640625,0.08447265625,-2.86102294921875,-0.0152587890625,1.0223388671875,-42.58266178266178,-111.7045177045177,-4.048351648351648,-0.0146484375,1.533203125,-1.29736328125,-0.83160400390625,0.77056884765625,1.678466796875,-100.15921855921856,-14.394139194139193,-24.29010989010989
45:29.604,0.8642578125,-0.005859375,1.8720703125,-1.19781494140625,0.74005126953125,-0.34332275390625,17.242979242979242,-31.037362637362637,51.72893772893773,-0.119140625,2.01806640625,0.08447265625,-2.1209716796875,1.07574462890625,0.46539306640625,-40.48351648351648,-112.45421245421245,-3.4485958485958483,-0.0146484375,1.533203125,-1.29736328125,-0.95367431640625,0.86212158203125,1.47247314453125,-100.75897435897436,-14.544078144078144,-26.539194139194137
45:30.384,0.85693359375,-0.00048828125,1.880859375,-1.51824951171875,0.60272216796875,-0.335693359375,17.842735042735043,-30.287667887667887,51.429059829059824,-0.13330078125,2.0322265625,0.0595703125,-2.1209716796875,1.07574462890625,0.46539306640625,-41.08327228327228,-112.45421245421245,-3.7484737484737485,-0.0126953125,1.52783203125,-1.28759765625,-0.95367431640625,0.86212158203125,1.47247314453125,-101.65860805860805,-14.694017094017093,-23.99023199023199
45:31.213,0.85986328125,-0.0078125,1.8759765625,-1.15966796875,0.84686279296875,-0.23651123046875,16.793162393162394,-31.337240537240536,50.37948717948718,-0.13720703125,2.02197265625,0.068359375,-2.66265869140625,0.0152587890625,1.19781494140625,-41.08327228327228,-112.45421245421245,-3.7484737484737485,0.0,1.53515625,-1.2890625,-0.92315673828125,0.823974609375,1.42669677734375,-101.65860805860805,-14.694017094017093,-23.99023199023199
45:31.993,0.85888671875,-0.00927734375,1.869140625,-0.9307861328125,1.0986328125,-0.31280517578125,17.692796092796094,-31.637118437118435,50.22954822954823,-0.13671875,2.03515625,0.05517578125,-3.22723388671875,-0.54931640625,1.04522705078125,-41.38315018315018,-110.05518925518925,-3.2986568986568985,-0.01025390625,1.53173828125,-1.29248046875,-0.946044921875,0.95367431640625,1.5716552734375,-101.20879120879121,-13.644444444444444,-25.33968253968254
45:32.773,0.85888671875,-0.00927734375,1.869140625,0.2593994140625,0.79345703125,0.152587890625,19.49206349206349,-31.187301587301587,50.52942612942613,-0.1279296875,2.02490234375,0.05908203125,-2.84576416015625,-0.14495849609375,1.220703125,-41.832967032967034,-112.45421245421245,-1.9492063492063492,-0.00537109375,1.533203125,-1.2998046875,-1.068115234375,0.9002685546875,1.51824951171875,-101.65860805860805,-15.893528693528692,-26.08937728937729
45:33.554,0.87744140625,0.03076171875,1.8876953125,0.2593994140625,0.79345703125,0.152587890625,19.49206349206349,-31.187301587301587,50.52942612942613,-0.1279296875,2.02490234375,0.05908203125,-2.52532958984375,0.25177001953125,0.335693359375,-42.43272283272283,-111.85445665445665,-2.249084249084249,-0.00537109375,1.533203125,-1.2998046875,-0.91552734375,0.732421875,1.89208984375,-99.85934065934066,-14.394139194139193,-25.78949938949939
45:34.430,0.94921875,0.01806640625,1.8828125,-0.57220458984375,0.701904296875,1.2664794921875,17.39291819291819,-30.887423687423688,50.52942612942613,-0.12939453125,2.02587890625,0.052734375,-2.52532958984375,0.25177001953125,0.335693359375,-42.43272283272283,-113.803663003663,-3.598534798534798,-0.01123046875,1.53466796875,-1.28759765625,-0.91552734375,0.732421875,1.89208984375,-101.05885225885226,-13.494505494505495,-27.588766788766787
45:35.210,0.91845703125,0.0078125,1.837890625,-1.129150390625,0.244140625,0.1983642578125,18.142612942612942,-32.236874236874236,46.78095238095238,-0.14453125,2.017578125,0.05615234375,-3.265380859375,0.58746337890625,0.57220458984375,-42.43272283272283,-113.803663003663,-3.598534798534798,-0.009765625,1.53466796875,-1.29248046875,-1.007080078125,0.9765625,1.64031982421875,-101.05885225885226,-13.494505494505495,-27.588766788766787
45:35.990,0.9462890625,0.01416015625,1.83984375,-1.30462646484375,0.60272216796875,0.2593994140625,18.142612942612942,-33.43638583638584,47.08083028083028,-0.14013671875,2.02294921875,0.06298828125,-3.68499755859375,0.11444091796875,0.732421875,-40.93333333333333,-112.3042735042735,-1.799267399267399,-0.0087890625,1.53369140625,-1.28466796875,-0.75531005859375,0.89263916015625,1.79290771484375,-100.9089133089133,-14.694017094017093,-25.78949938949939
45:36.770,0.9462890625,0.01416015625,1.83984375,0.152587890625,-10.07843017578125,-4.0740966796875,15.893528693528692,-32.236874236874236,48.13040293040293,-0.12890625,2.01806640625,0.04443359375,-2.14385986328125,0.3204345703125,0.93841552734375,-42.28278388278388,-112.45421245421245,-2.998778998778999,-0.00341796875,1.53759765625,-1.29931640625,-1.07574462890625,0.8697509765625,1.9378662109375,-98.95970695970695,-13.794383394383393,-26.23931623931624
45:37.697,0.82861328125,0.0302734375,1.875,0.152587890625,-10.07843017578125,-4.0740966796875,20.09181929181929,-32.536752136752135,48.73015873015873,-0.134765625,2.02685546875,0.05078125,-3.0975341796875,-0.18310546875,0.8544921875,-42.13284493284493,-111.55457875457876,-4.348229548229548,-0.00341796875,1.53076171875,-1.298828125,-1.068115234375,0.79345703125,1.678466796875,-101.50866910866911,-14.244200244200243,-26.539194139194137
45:38.477,0.97119140625,0.04296875,1.76416015625,1.9378662109375,-3.71551513671875,-0.579833984375,20.09181929181929,-32.536752136752135,48.73015873015873,-0.134765625,2.02685546875,0.05078125,-3.0975341796875,-0.18310546875,0.8544921875,-41.683028083028084,-110.804884004884,-4.648107448107448,-0.00341796875,1.53076171875,-1.298828125,-1.068115234375,0.79345703125,1.678466796875,-101.20879120879121,-13.344566544566543,-26.08937728937729
45:39.257,0.9765625,0.025390625,1.8203125,-1.07574462890625,1.2054443359375,-0.06866455078125,20.09181929181929,-35.985347985347985,45.88131868131868,-0.13427734375,2.02099609375,0.0390625,-3.36456298828125,-0.64849853515625,0.99945068359375,-41.683028083028084,-110.804884004884,-4.648107448107448,-0.0087890625,1.5380859375,-1.27978515625,-0.86212158203125,0.98419189453125,1.9073486328125,-101.20879120879121,-13.344566544566543,-26.08937728937729
45:40.085,0.873046875,0.03564453125,1.9033203125,-1.9683837890625,-26.46636962890625,-4.364013671875,15.893528693528692,-35.53553113553114,47.08083028083028,-0.1552734375,2.0234375,0.05615234375,-3.7689208984375,0.34332275390625,0.152587890625,-41.533089133089135,-112.15433455433455,-2.998778998778999,-0.00732421875,1.5322265625,-1.296875,-1.07574462890625,0.9918212890625,1.91497802734375,-100.3091575091575,-14.843956043956043,-25.93943833943834
45:40.866,0.93701171875,0.03271484375,1.8369140625,-0.5035400390625,2.11334228515625,-0.6561279296875,18.59242979242979,-31.787057387057384,48.73015873015873,-0.14306640625,2.03369140625,0.0556640625,-2.9144287109375,0.30517578125,0.98419189453125,-40.93333333333333,-113.803663003663,-2.848840048840049,-0.009765625,1.5341796875,-1.3076171875,-1.1444091796875,0.93841552734375,1.85394287109375,-100.6090354090354,-15.443711843711844,-25.33968253968254
45:41.645,0.93701171875,0.03271484375,1.8369140625,-0.5035400390625,2.11334228515625,-0.6561279296875,18.59242979242979,-31.787057387057384,48.73015873015873,-0.146484375,2.02783203125,0.08251953125,-4.43267822265625,-0.84686279296875,1.373291015625,-41.08327228327228,-112.45421245421245,-2.6989010989010986,-0.01220703125,1.54248046875,-1.3017578125,-1.02996826171875,0.99945068359375,1.76239013671875,-100.75897435897436,-14.544078144078144,-25.93943833943834
45:42.425,0.923828125,0.04541015625,1.85888671875,-1.06048583984375,0.6103515625,0.19073486328125,17.842735042735043,-31.787057387057384,47.68058608058608,-0.146484375,2.02783203125,0.08251953125,-4.43267822265625,-0.84686279296875,1.373291015625,-42.43272283272283,-110.804884004884,-2.548962148962149,-0.01220703125,1.54248046875,-1.3017578125,-1.02996826171875,0.99945068359375,1.76239013671875,-100.3091575091575,-13.494505494505495,-25.489621489621488
45:43.205,0.9892578125,0.0283203125,1.80419921875,2.0599365234375,-3.24249267578125,-0.9613037109375,17.692796092796094,-33.43638583638584,47.53064713064713,-0.12841796875,2.01708984375,0.08935546875,-3.60870361328125,-0.54931640625,1.28936767578125,-42.43272283272283,-110.804884004884,-2.548962148962149,-0.00341796875,1.537109375,-1.30419921875,-0.92315673828125,0.762939453125,1.73187255859375,-100.3091575091575,-13.494505494505495,-25.489621489621488
45:43.985,0.82568359375,0.0615234375,1.96826171875,1.6937255859375,3.42559814453125,0.67901611328125,15.743589743589743,-35.68547008547009,44.53186813186813,-0.134765625,2.0341796875,0.0791015625,-2.47955322265625,1.16729736328125,0.35858154296875,-42.13284493284493,-111.1047619047619,-2.548962148962149,-0.00390625,1.53076171875,-1.29443359375,-1.04522705078125,0.5645751953125,1.96075439453125,-100.6090354090354,-13.944322344322345,-26.389255189255188
45:44.814,0.82568359375,0.0615234375,1.96826171875,-0.1678466796875,2.86102294921875,-0.34332275390625,17.39291819291819,-34.036141636141636,46.78095238095238,-0.15576171875,2.02392578125,0.06591796875,-3.41033935546875,0.78582763671875,0.52642822265625,-42.28278388278388,-110.95482295482294,-0.5997557997557997,-0.0087890625,1.5244140625,-1.29345703125,-0.91552734375,0.74005126953125,1.62506103515625,-99.1096459096459,-12.594871794871795,-26.389255189255188
45:45.595,0.880859375,0.01416015625,1.89111328125,-0.1678466796875,2.86102294921875,-0.34332275390625,17.39291819291819,-34.036141636141636,46.78095238095238,-0.15576171875,2.02392578125,0.06591796875,-4.12750244140625,0.09918212890625,1.4801025390625,-41.683028083028084,-111.55457875457876,-0.7496947496947497,-0.0087890625,1.5244140625,-1.29345703125,-0.99945068359375,0.7781982421875,1.68609619140625,-101.20879120879121,-15.143833943833943,-25.33968253968254
45:46.374,0.8974609375,0.03515625,1.87109375,-0.7476806640625,2.0904541015625,0.31280517578125,18.142612942612942,-34.485958485958484,47.08083028083028,-0.1455078125,2.03466796875,0.087890625,-4.12750244140625,0.09918212890625,1.4801025390625,-41.683028083028084,-111.55457875457876,-0.7496947496947497,-0.00634765625,1.52294921875,-1.30419921875,-0.99945068359375,0.7781982421875,1.68609619140625,-101.20879120879121,-15.143833943833943,-25.33968253968254
45:47.154,0.93896484375,0.00146484375,1.841796875,-2.38037109375,7.4310302734375,1.4190673828125,19.34212454212454,-33.88620268620269,46.63101343101343,-0.15087890625,2.01904296875,0.08349609375,-2.96783447265625,-0.2288818359375,0.61798095703125,-40.93333333333333,-111.55457875457876,-1.1995115995115995,-0.0087890625,1.52880859375,-1.29931640625,-0.9307861328125,0.701904296875,1.678466796875,-100.75897435897436,-15.593650793650793,-25.489621489621488
45:48.032,0.853515625,-0.00439453125,1.86181640625,-1.27410888671875,0.02288818359375,-0.06866455078125,16.793162393162394,-33.88620268620269,49.329914529914525,-0.1552734375,2.0263671875,0.07666015625,-3.30352783203125,0.4119873046875,0.78582763671875,-41.832967032967034,-111.7045177045177,-0.5997557997557997,-0.009765625,1.52587890625,-1.2822265625,-0.762939453125,0.7781982421875,1.6937255859375,-102.4083028083028,-14.394139194139193,-25.33968253968254
45:48.812,0.853515625,-0.00439453125,1.86181640625,1.30462646484375,-5.31005859375,0.3509521484375,16.793162393162394,-33.88620268620269,51.129181929181925,-0.13671875,2.03173828125,0.07275390625,-4.0130615234375,1.5411376953125,0.84686279296875,-40.18363858363858,-111.55457875457876,-2.249084249084249,-0.00341796875,1.53662109375,-1.29248046875,-0.20599365234375,0.518798828125,2.03704833984375,-100.15921855921856,-15.443711843711844,-25.03980463980464
45:49.689,0.833984375,0.01171875,1.8955078125,1.30462646484375,-5.31005859375,0.3509521484375,17.39291819291819,-33.73626373626374,50.22954822954823,-0.2255859375,2.01953125,0.06201171875,-1.71661376953125,-2.197265625,2.716064453125,-40.18363858363858,-111.85445665445665,-2.548962148962149,-0.00830078125,1.51708984375,-1.2919921875,-0.9002685546875,0.6866455078125,1.94549560546875,-101.20879120879121,-15.443711843711844,-25.33968253968254
45:50.469,0.76171875,-0.02587890625,1.94677734375,-7.85064697265625,18.30291748046875,-11.89422607421875,17.39291819291819,-33.73626373626374,50.22954822954823,-0.2255859375,2.01953125,0.06201171875,-1.71661376953125,-2.197265625,2.716064453125,-40.48351648351648,-110.95482295482294,-1.3494505494505493,-0.00830078125,1.51708984375,-1.2919921875,-0.9002685546875,0.6866455078125,1.94549560546875,-101.20879120879121,-15.893528693528692,-25.03980463980464
45:51.249,1.01171875,0.216796875,1.70263671875,-3.0364990234375,-13.36669921875,5.7220458984375,21.89108669108669,-27.738705738705736,67.32258852258852,-0.28662109375,2.02783203125,0.07763671875,-2.1514892578125,-3.448486328125,2.2125244140625,-40.48351648351648,-110.95482295482294,-1.3494505494505493,-0.0283203125,1.5224609375,-1.3173828125,-1.4495849609375,0.518798828125,2.685546875,-101.20879120879121,-15.893528693528692,-25.03980463980464
45:52.078,0.68212890625,0.05419921875,2.0830078125,-7.31658935546875,-38.32244873046875,-1.94549560546875,51.87887667887668,-39.733821733821735,80.21733821733821,-0.16064453125,2.025390625,-0.00537109375,-3.6163330078125,0.1373291015625,0.40435791015625,-42.28278388278388,-108.85567765567765,1.1995115995115995,-0.0224609375,1.51220703125,-1.3056640625,-0.58746337890625,1.04522705078125,1.5106201171875,-101.05885225885226,-14.544078144078144,-26.23931623931624
45:52.907,0.80322265625,-0.02197265625,1.845703125,2.532958984375,1.04522705078125,1.4495849609375,15.893528693528692,-29.388034188034187,55.62735042735043,-0.125,2.017578125,0.02880859375,-2.47955322265625,3.72314453125,2.43377685546875,-39.13406593406593,-112.3042735042735,-4.648107448107448,-0.01611328125,1.5244140625,-1.31005859375,-1.02996826171875,0.75531005859375,2.01416015625,-100.0092796092796,-12.744810744810744,-26.539194139194137
45:53.833,0.80322265625,-0.02197265625,1.845703125,-3.36456298828125,-6.21795654296875,-1.09100341796875,14.544078144078144,-31.936996336996337,53.97802197802198,-0.1396484375,2.01904296875,-0.01611328125,-2.99072265625,-1.06048583984375,0.91552734375,-40.63345543345543,-111.85445665445665,-3.8984126984126983,-0.01708984375,1.52587890625,-1.3056640625,-0.83160400390625,0.89263916015625,1.57928466796875,-101.65860805860805,-14.694017094017093,-25.78949938949939
45:54.662,0.986328125,0.013671875,1.79345703125,-3.36456298828125,-6.21795654296875,-1.09100341796875,16.343345543345542,-34.036141636141636,52.17875457875458,-0.1767578125,2.03173828125,-0.00048828125,-3.33404541015625,0.0,0.75531005859375,-40.63345543345543,-111.85445665445665,-2.848840048840049,-0.01220703125,1.5234375,-1.302734375,-1.12152099609375,0.823974609375,1.8157958984375,-99.7094017094017,-14.544078144078144,-26.539194139194137
45:55.490,0.7861328125,0.04150390625,1.896484375,-1.70135498046875,2.25830078125,-0.0152587890625,16.343345543345542,-34.036141636141636,52.17875457875458,-0.1767578125,2.03173828125,-0.00048828125,-3.33404541015625,0.0,0.75531005859375,-42.58266178266178,-111.7045177045177,-4.798046398046398,-0.01220703125,1.5234375,-1.302734375,-1.12152099609375,0.823974609375,1.8157958984375,-102.4083028083028,-14.694017094017093,-27.13894993894994
45:56.270,1.125,0.115234375,1.7822265625,6.00433349609375,-0.3814697265625,0.06103515625,16.49328449328449,-33.58632478632479,52.47863247863248,-0.26611328125,2.01513671875,0.08935546875,-6.46209716796875,4.61578369140625,-0.3662109375,-42.58266178266178,-111.7045177045177,-4.798046398046398,-0.02197265625,1.5234375,-1.2998046875,-0.8392333984375,0.7781982421875,1.51824951171875,-102.4083028083028,-14.694017094017093,-27.13894993894994
45:57.099,0.83837890625,0.0400390625,1.92529296875,-10.92529296875,-6.91986083984375,1.28173828125,31.787057387057384,-60.125518925518925,67.32258852258852,-0.12548828125,2.02783203125,0.0087890625,-0.396728515625,-1.22833251953125,5.27191162109375,-41.38315018315018,-109.30549450549451,-2.548962148962149,-0.01806640625,1.5146484375,-1.29541015625,-0.9307861328125,0.8392333984375,1.556396484375,-102.4083028083028,-13.344566544566543,-26.08937728937729
45:57.928,0.98291015625,0.0439453125,1.80712890625,0.31280517578125,2.777099609375,-0.8697509765625,21.14139194139194,-30.287667887667887,57.12673992673992,-0.13037109375,2.02490234375,-0.01220703125,-3.82232666015625,-0.1068115234375,0.70953369140625,-40.033699633699634,-111.7045177045177,-4.048351648351648,-0.0283203125,1.5146484375,-1.2958984375,-0.8087158203125,0.9002685546875,1.22833251953125,-100.0092796092796,-15.293772893772893,-26.23931623931624
45:58.708,0.98291015625,0.0439453125,1.80712890625,0.31280517578125,2.777099609375,-0.8697509765625,18.29255189255189,-32.08693528693529,50.67936507936508,-0.14697265625,2.0341796875,0.00830078125,-3.07464599609375,0.0457763671875,1.068115234375,-41.683028083028084,-111.1047619047619,-3.8984126984126983,-0.015625,1.5146484375,-1.31787109375,-0.93841552734375,0.8697509765625,1.68609619140625,-102.4083028083028,-12.894749694749695,-26.389255189255188
45:59.488,0.9296875,0.037109375,1.82666015625,-0.885009765625,1.7242431640625,-0.03814697265625,18.29255189255189,-32.08693528693529,50.67936507936508,-0.14697265625,2.0341796875,0.00830078125,-3.07464599609375,0.0457763671875,1.068115234375,-40.033699633699634,-110.95482295482294,-4.498168498168498,-0.015625,1.5146484375,-1.31787109375,-0.93841552734375,0.8697509765625,1.68609619140625,-100.15921855921856,-13.644444444444444,-27.438827838827837
46:00.268,0.896484375,0.04736328125,1.85791015625,-0.152587890625,3.85284423828125,-0.0152587890625,23.84029304029304,-32.08693528693529,52.778510378510376,-0.1435546875,2.0224609375,0.001953125,-3.76129150390625,-0.22125244140625,1.5106201171875,-40.033699633699634,-110.95482295482294,-4.498168498168498,-0.01953125,1.51025390625,-1.29736328125,-0.83160400390625,0.89263916015625,1.6632080078125,-100.15921855921856,-13.644444444444444,-27.438827838827837
46:01.097,0.92529296875,0.06640625,1.8251953125,-1.60980224609375,-1.70135498046875,-1.9683837890625,20.69157509157509,-32.836630036630034,53.078388278388275,-0.14013671875,2.025390625,0.0087890625,-3.05938720703125,0.34332275390625,-0.091552734375,-41.832967032967034,-111.7045177045177,-4.498168498168498,-0.02001953125,1.51806640625,-1.3125,-0.81634521484375,0.69427490234375,1.65557861328125,-102.55824175824175,-13.794383394383393,-26.98901098901099
46:01.926,0.9453125,0.0771484375,1.81396484375,-2.18963623046875,7.88116455078125,-2.1514892578125,20.69157509157509,-31.037362637362637,53.82808302808303,-0.15966796875,2.025390625,0.01220703125,-4.21905517578125,-1.15203857421875,0.6561279296875,-43.33235653235653,-111.7045177045177,-4.048351648351648,-0.02197265625,1.52001953125,-1.3134765625,-0.9613037109375,0.8544921875,1.7547607421875,-100.3091575091575,-13.494505494505495,-27.588766788766787
46:02.706,0.9453125,0.0771484375,1.81396484375,-2.18963623046875,7.88116455078125,-2.1514892578125,21.89108669108669,-34.036141636141636,52.928449328449325,-0.1728515625,2.01806640625,0.01318359375,-2.5482177734375,1.13677978515625,0.213623046875,-41.38315018315018,-111.1047619047619,-3.598534798534798,-0.021484375,1.5126953125,-1.302734375,-1.1749267578125,0.885009765625,1.74713134765625,-101.95848595848595,-12.894749694749695,-26.83907203907204
46:03.486,0.8369140625,0.07421875,1.91162109375,-0.70953369140625,0.14495849609375,-0.91552734375,21.89108669108669,-34.036141636141636,52.928449328449325,-0.1728515625,2.01806640625,0.01318359375,-2.5482177734375,1.13677978515625,0.213623046875,-42.13284493284493,-112.6041514041514,-5.397802197802197,-0.021484375,1.5126953125,-1.302734375,-1.1749267578125,0.885009765625,1.74713134765625,-101.95848595848595,-15.143833943833943,-26.389255189255188
46:04.266,0.96533203125,0.0400390625,1.8388671875,-0.75531005859375,1.70135498046875,0.61798095703125,21.29133089133089,-32.236874236874236,51.279120879120875,-0.166015625,2.01513671875,0.00048828125,-2.349853515625,0.2288818359375,1.19781494140625,-42.13284493284493,-112.6041514041514,-5.397802197802197,-0.017578125,1.5224609375,-1.3037109375,-1.18255615234375,0.7781982421875,1.4495849609375,-101.95848595848595,-15.143833943833943,-26.389255189255188
46:05.095,0.9140625,0.0458984375,1.8525390625,-1.48773193359375,1.0528564453125,-0.1678466796875,20.24175824175824,-30.887423687423688,52.928449328449325,-0.16748046875,2.02978515625,0.01025390625,-3.509521484375,0.26702880859375,0.43487548828125,-40.63345543345543,-111.55457875457876,-1.799267399267399,-0.0263671875,1.5146484375,-1.3154296875,-0.7781982421875,0.91552734375,1.9683837890625,-103.0080586080586,-13.644444444444444,-26.08937728937729
46:05.874,0.90673828125,0.0478515625,1.85302734375,-0.66375732421875,-0.152587890625,0.1068115234375,20.39169719169719,-30.737484737484735,54.877655677655675,-0.20068359375,2.02099609375,0.0322265625,-2.50244140625,0.40435791015625,0.701904296875,-40.63345543345543,-111.55457875457876,-4.348229548229548,-0.0244140625,1.52001953125,-1.3076171875,-0.762939453125,0.762939453125,1.7852783203125,-101.05885225885226,-15.293772893772893,-25.18974358974359
46:06.654,0.90673828125,0.0478515625,1.85302734375,-0.66375732421875,-0.152587890625,0.1068115234375,20.39169719169719,-30.737484737484735,54.877655677655675,-0.19873046875,2.0185546875,0.0283203125,-4.1656494140625,-0.72479248046875,1.64031982421875,-40.63345543345543,-111.1047619047619,-3.2986568986568985,-0.01953125,1.5185546875,-1.3095703125,-1.129150390625,0.9613037109375,1.71661376953125,-100.6090354090354,-14.394139194139193,-26.08937728937729
46:07.434,0.90478515625,0.04248046875,1.8603515625,-0.9002685546875,0.8392333984375,-0.23651123046875,22.79072039072039,-32.836630036630034,55.17753357753357,-0.19873046875,2.0185546875,0.0283203125,-4.1656494140625,-0.72479248046875,1.64031982421875,-40.63345543345543,-110.05518925518925,-4.947985347985348,-0.01953125,1.5185546875,-1.3095703125,-1.30462646484375,0.5340576171875,1.91497802734375,-100.6090354090354,-15.143833943833943,-26.83907203907204
46:08.312,0.90478515625,0.05859375,1.8564453125,-0.91552734375,1.678466796875,0.2593994140625,23.690354090354088,-32.98656898656898,55.32747252747252,-0.19140625,2.02490234375,0.02978515625,-2.9296875,-0.18310546875,-0.457763671875,-40.63345543345543,-110.05518925518925,-4.947985347985348,-0.013671875,1.51708984375,-1.30615234375,-1.30462646484375,0.5340576171875,1.91497802734375,-100.6090354090354,-15.143833943833943,-26.83907203907204
46:09.092,0.56103515625,-0.0302734375,2.10107421875,-11.810302734375,28.0303955078125,-36.99493408203125,24.44004884004884,-32.236874236874236,55.62735042735043,-0.1865234375,2.0009765625,0.0380859375,-2.471923828125,-2.838134765625,4.5166015625,-40.78339438339438,-110.2051282051282,-2.6989010989010986,-0.02587890625,1.5166015625,-1.31298828125,-0.6866455078125,0.40435791015625,2.31170654296875,-102.7081807081807,-13.944322344322345,-26.83907203907204
46:09.921,0.88916015625,0.1025390625,1.8701171875,-3.60107421875,1.89208984375,0.00762939453125,13.194627594627594,-29.088156288156288,57.42661782661782,-0.1845703125,2.02392578125,0.0322265625,-3.9520263671875,-1.068115234375,2.11334228515625,-40.48351648351648,-110.2051282051282,-4.798046398046398,-0.02392578125,1.51513671875,-1.3046875,-1.02996826171875,0.98419189453125,1.68609619140625,-100.6090354090354,-13.344566544566543,-26.08937728937729
46:10.701,0.88916015625,0.1025390625,1.8701171875,-3.60107421875,1.89208984375,0.00762939453125,8.696459096459096,-32.536752136752135,45.88131868131868,-0.17578125,2.033203125,0.02197265625,-2.44903564453125,1.48773193359375,0.335693359375,-40.93333333333333,-111.85445665445665,-2.249084249084249,-0.02734375,1.515625,-1.3115234375,-1.007080078125,0.78582763671875,2.00653076171875,-100.3091575091575,-16.043467643467643,-26.23931623931624
46:11.530,0.93212890625,0.07275390625,1.83837890625,-0.1220703125,0.00762939453125,0.58746337890625,8.696459096459096,-32.536752136752135,45.88131868131868,-0.17578125,2.033203125,0.02197265625,-3.0364990234375,0.48828125,0.78582763671875,-41.08327228327228,-111.4046398046398,-1.9492063492063492,-0.02734375,1.515625,-1.3115234375,-0.99945068359375,0.9002685546875,1.96075439453125,-102.85811965811965,-13.044688644688645,-28.03858363858364
46:12.358,0.78515625,0.12841796875,2.03564453125,-5.767822265625,2.5482177734375,-2.08282470703125,8.846398046398047,-33.73626373626374,44.68180708180708,-0.19287109375,2.0361328125,0.01025390625,-3.0364990234375,0.48828125,0.78582763671875,-41.08327228327228,-111.4046398046398,-1.9492063492063492,-0.0244140625,1.50927734375,-1.30615234375,-0.99945068359375,0.9002685546875,1.96075439453125,-102.85811965811965,-13.044688644688645,-28.03858363858364
46:13.138,0.95166015625,0.056640625,1.83349609375,-0.9307861328125,-0.3204345703125,0.5950927734375,8.846398046398047,-33.73626373626374,45.73137973137973,-0.185546875,2.0205078125,0.001953125,-3.5858154296875,-0.4730224609375,1.190185546875,-42.13284493284493,-110.5050061050061,-3.8984126984126983,-0.02294921875,1.513671875,-1.3056640625,-1.03759765625,0.77056884765625,1.64031982421875,-100.9089133089133,-13.644444444444444,-27.438827838827837
46:13.918,0.93359375,0.0634765625,1.8603515625,-1.36566162109375,8.3160400390625,0.46539306640625,10.345787545787545,-34.78583638583638,45.431501831501826,-0.18115234375,2.02099609375,0.0361328125,-2.37274169921875,0.57220458984375,0.7781982421875,-41.38315018315018,-111.55457875457876,-4.348229548229548,-0.0302734375,1.51220703125,-1.2998046875,-1.18255615234375,0.7781982421875,1.88446044921875,-101.95848595848595,-14.394139194139193,-25.78949938949939
46:14.698,0.93359375,0.0634765625,1.8603515625,-1.36566162109375,8.3160400390625,0.46539306640625,9.446153846153846,-35.985347985347985,44.53186813186813,-0.16748046875,2.021484375,0.029296875,-3.62396240234375,-0.30517578125,0.80108642578125,-39.733821733821735,-112.15433455433455,-2.6989010989010986,-0.02294921875,1.513671875,-1.31689453125,-0.74005126953125,0.80108642578125,1.68609619140625,-100.3091575091575,-14.244200244200243,-26.23931623931624
46:15.576,0.8701171875,0.05029296875,1.859375,-2.9144287109375,6.37054443359375,-1.09100341796875,9.446153846153846,-35.985347985347985,44.53186813186813,-0.16748046875,2.021484375,0.029296875,-2.98309326171875,-1.45721435546875,1.42669677734375,-43.482295482295484,-112.3042735042735,-3.2986568986568985,-0.02294921875,1.513671875,-1.31689453125,-0.84686279296875,1.09100341796875,1.74713134765625,-99.85934065934066,-15.143833943833943,-27.13894993894994
46:16.356,0.89208984375,0.04931640625,1.8642578125,-1.5869140625,1.25885009765625,0.0152587890625,10.195848595848595,-36.73504273504273,44.98168498168498,-0.1982421875,2.02978515625,0.0087890625,-2.98309326171875,-1.45721435546875,1.42669677734375,-43.482295482295484,-112.3042735042735,-3.2986568986568985,-0.02294921875,1.51513671875,-1.306640625,-0.84686279296875,1.09100341796875,1.74713134765625,-99.85934065934066,-15.143833943833943,-27.13894993894994
46:17.185,1.0673828125,-0.0615234375,1.78125,-2.26593017578125,-1.373291015625,-7.07244873046875,9.296214896214895,-35.835409035409036,44.68180708180708,-0.21875,2.03271484375,0.02880859375,-2.73895263671875,1.94549560546875,0.518798828125,-40.93333333333333,-111.1047619047619,-2.848840048840049,-0.02294921875,1.509765625,-1.31298828125,-1.41143798828125,0.95367431640625,1.65557861328125,-101.95848595848595,-13.644444444444444,-27.88864468864469
46:18.014,1.13525390625,-0.14794921875,1.78271484375,-5.18798828125,29.266357421875,46.08154296875,-30.287667887667887,-28.03858363858364,90.11330891330891,-0.24658203125,2.03515625,0.04248046875,-1.3885498046875,1.007080078125,3.16619873046875,-40.93333333333333,-110.5050061050061,-2.548962148962149,-0.02001953125,1.50927734375,-1.3193359375,-1.28936767578125,1.1138916015625,1.40380859375,-101.80854700854701,-12.444932844932845,-27.288888888888888
46:18.842,1.13525390625,-0.14794921875,1.78271484375,-1.53350830078125,2.12860107421875,1.45721435546875,-22.49084249084249,-31.637118437118435,83.21611721611721,-0.1845703125,2.02734375,-0.00927734375,-3.53240966796875,-0.20599365234375,0.90789794921875,-40.48351648351648,-112.45421245421245,-4.048351648351648,-0.015625,1.51416015625,-1.3095703125,-0.80108642578125,0.81634521484375,1.77764892578125,-100.75897435897436,-13.044688644688645,-26.23931623931624
46:19.719,0.958984375,-0.0859375,1.78515625,-1.53350830078125,2.12860107421875,1.45721435546875,15.293772893772893,-32.686691086691084,52.17875457875458,-0.21923828125,2.00927734375,0.01708984375,-3.936767578125,0.29754638671875,0.1373291015625,-41.832967032967034,-112.45421245421245,-4.048351648351648,-0.01904296875,1.50732421875,-1.31640625,-1.02996826171875,0.58746337890625,1.99127197265625,-101.95848595848595,-13.644444444444444,-26.389255189255188
46:20.548,1.0908203125,-0.16162109375,1.78125,-9.43756103515625,18.0511474609375,14.6026611328125,15.293772893772893,-32.686691086691084,52.17875457875458,-0.21923828125,2.00927734375,0.01708984375,-3.01361083984375,0.29754638671875,1.77764892578125,-41.832967032967034,-110.65494505494505,-3.4485958485958483,-0.01904296875,1.50732421875,-1.31640625,-1.0986328125,0.67138671875,1.82342529296875,-100.75897435897436,-13.794383394383393,-27.288888888888888
46:21.328,0.98388671875,-0.24658203125,1.78857421875,-0.46539306640625,2.72369384765625,1.44195556640625,-17.242979242979242,-24.88986568986569,90.71306471306471,-0.17333984375,2.03125,0.005859375,-3.01361083984375,0.29754638671875,1.77764892578125,-41.832967032967034,-110.65494505494505,-3.4485958485958483,-0.0205078125,1.5087890625,-1.33251953125,-1.0986328125,0.67138671875,1.82342529296875,-100.75897435897436,-13.794383394383393,-27.288888888888888
46:22.109,0.9873046875,-0.22314453125,1.78564453125,-1.9378662109375,2.54058837890625,-0.54168701171875,7.796825396825397,-43.03247863247863,59.07594627594627,-0.16259765625,2.017578125,-0.01220703125,-1.67083740234375,-1.06048583984375,0.9613037109375,-42.13284493284493,-110.804884004884,-2.848840048840049,-0.029296875,1.5205078125,-1.31396484375,-0.81634521484375,0.8697509765625,1.83868408203125,-100.0092796092796,-14.544078144078144,-26.98901098901099
46:22.888,0.9912109375,-0.17919921875,1.79638671875,0.09918212890625,-0.2593994140625,0.11444091796875,8.696459096459096,-43.482295482295484,58.176312576312576,-0.1845703125,2.03125,-0.00146484375,-2.66265869140625,0.11444091796875,0.67901611328125,-41.08327228327228,-112.15433455433455,-4.798046398046398,-0.01953125,1.51708984375,-1.3076171875,-0.9918212890625,0.64849853515625,1.617431640625,-99.7094017094017,-12.444932844932845,-26.98901098901099
46:23.668,0.9912109375,-0.17919921875,1.79638671875,0.09918212890625,-0.2593994140625,0.11444091796875,8.546520146520146,-43.03247863247863,52.928449328449325,-0.27734375,2.0009765625,0.01904296875,-0.57220458984375,-4.21905517578125,2.02178955078125,-40.93333333333333,-111.55457875457876,-2.848840048840049,-0.0244140625,1.513671875,-1.31396484375,-0.92315673828125,0.9613037109375,1.93023681640625,-101.20879120879121,-13.644444444444444,-25.33968253968254
46:24.498,1.05029296875,0.009765625,1.705078125,-2.89154052734375,-1.77001953125,13.6566162109375,8.546520146520146,-43.03247863247863,52.928449328449325,-0.27734375,2.0009765625,0.01904296875,-0.57220458984375,-4.21905517578125,2.02178955078125,-40.18363858363858,-111.1047619047619,-2.548962148962149,-0.0244140625,1.513671875,-1.31396484375,-0.92315673828125,0.9613037109375,1.93023681640625,-101.05885225885226,-13.044688644688645,-26.23931623931624
46:25.277,0.99462890625,-0.15966796875,1.81640625,-2.1209716796875,-3.021240234375,1.99127197265625,34.93577533577533,-43.33235653235653,81.26691086691086,-0.19140625,2.0234375,-0.01123046875,-3.30352783203125,0.213623046875,0.9307861328125,-40.18363858363858,-111.1047619047619,-2.548962148962149,-0.02294921875,1.51025390625,-1.30810546875,-0.95367431640625,0.9918212890625,1.800537109375,-101.05885225885226,-13.044688644688645,-26.23931623931624
46:26.155,1.0146484375,-0.1357421875,1.80419921875,-1.3275146484375,0.885009765625,1.41143798828125,21.741147741147742,-35.68547008547009,56.227106227106226,-0.19970703125,2.0302734375,-0.01220703125,-4.89044189453125,-0.3204345703125,0.84686279296875,-39.883760683760684,-110.804884004884,-4.648107448107448,-0.0185546875,1.515625,-1.310546875,-0.72479248046875,0.86212158203125,1.70135498046875,-100.9089133089133,-14.694017094017093,-26.08937728937729
46:26.934,1.021484375,-0.1669921875,1.91015625,-3.28826904296875,30.40313720703125,-1.53350830078125,21.29133089133089,-38.68424908424908,55.92722832722833,-0.18701171875,2.041015625,-0.025390625,-2.34222412109375,-0.89263916015625,2.6397705078125,-41.832967032967034,-112.75409035409035,-3.4485958485958483,-0.03271484375,1.5263671875,-1.33203125,-1.31988525390625,1.03759765625,1.64794921875,-100.9089133089133,-15.143833943833943,-26.83907203907204
46:27.861,0.83349609375,-0.18505859375,1.921875,3.19671630859375,0.29754638671875,1.30462646484375,23.690354090354088,-31.637118437118435,62.074725274725274,-0.1455078125,2.0224609375,0.0146484375,-2.593994140625,0.46539306640625,0.43487548828125,-41.683028083028084,-109.30549450549451,-2.848840048840049,-0.0244140625,1.5107421875,-1.3134765625,-0.86212158203125,0.86212158203125,1.6021728515625,-100.75897435897436,-13.794383394383393,-27.588766788766787
46:28.641,0.83349609375,-0.18505859375,1.921875,3.19671630859375,0.29754638671875,1.30462646484375,23.690354090354088,-31.637118437118435,62.074725274725274,-0.16064453125,2.03076171875,0.01220703125,-3.16619873046875,0.11444091796875,0.1983642578125,-41.832967032967034,-110.95482295482294,-3.4485958485958483,-0.021484375,1.51171875,-1.3134765625,-0.86212158203125,0.99945068359375,1.739501953125,-101.50866910866911,-14.544078144078144,-25.18974358974359
46:29.421,0.904296875,-0.15234375,1.8701171875,-0.17547607421875,-2.25830078125,-0.84686279296875,25.639560439560437,-27.88864468864469,64.32380952380952,-0.16064453125,2.03076171875,0.01220703125,-3.16619873046875,0.11444091796875,0.1983642578125,-42.73260073260073,-112.3042735042735,-4.947985347985348,-0.021484375,1.51171875,-1.3134765625,-0.86212158203125,0.99945068359375,1.739501953125,-100.3091575091575,-11.995115995115995,-26.98901098901099
46:30.201,0.89208984375,-0.10693359375,1.95654296875,2.89154052734375,-2.14385986328125,-1.77764892578125,25.639560439560437,-30.737484737484735,61.924786324786325,-0.16552734375,2.01708984375,0.03271484375,-2.11334228515625,1.53350830078125,1.04522705078125,-42.73260073260073,-112.3042735042735,-4.947985347985348,-0.02294921875,1.5146484375,-1.310546875,-0.6256103515625,1.2359619140625,1.64794921875,-100.3091575091575,-11.995115995115995,-26.98901098901099
46:30.981,0.85498046875,-0.16650390625,1.86767578125,-0.29754638671875,1.190185546875,1.129150390625,23.690354090354088,-31.637118437118435,59.07594627594627,-0.18017578125,2.02099609375,-0.0107421875,-3.0975341796875,-1.12152099609375,1.1138916015625,-39.883760683760684,-111.55457875457876,-3.8984126984126983,-0.02392578125,1.5107421875,-1.3115234375,-0.90789794921875,0.9613037109375,1.708984375,-101.65860805860805,-14.694017094017093,-26.83907203907204
46:31.810,0.85498046875,-0.16650390625,1.86767578125,3.631591796875,-30.40313720703125,1.0528564453125,25.639560439560437,-29.987789987789988,61.624908424908426,-0.17822265625,2.04150390625,0.02783203125,-2.960205078125,1.2054443359375,1.007080078125,-40.63345543345543,-111.1047619047619,-3.8984126984126983,-0.02490234375,1.5185546875,-1.31005859375,-1.0833740234375,0.86212158203125,1.86920166015625,-101.50866910866911,-13.494505494505495,-27.588766788766787
46:32.639,0.90869140625,-0.1328125,1.67138671875,3.631591796875,-30.40313720703125,1.0528564453125,25.639560439560437,-29.987789987789988,61.624908424908426,-0.15966796875,2.02783203125,0.01318359375,-2.9144287109375,0.54168701171875,0.701904296875,-40.63345543345543,-110.804884004884,-3.8984126984126983,-0.02197265625,1.5068359375,-1.30615234375,-0.83160400390625,1.07574462890625,1.3427734375,-101.50866910866911,-14.544078144078144,-26.98901098901099
46:33.419,0.92578125,-0.142578125,1.66796875,6.439208984375,2.90679931640625,-4.28009033203125,24.29010989010989,-32.08693528693529,58.92600732600732,-0.15966796875,2.02783203125,0.01318359375,-2.9144287109375,0.54168701171875,0.701904296875,-40.63345543345543,-111.55457875457876,-3.598534798534798,-0.02197265625,1.5068359375,-1.30615234375,-0.83160400390625,1.07574462890625,1.3427734375,-101.50866910866911,-14.244200244200243,-25.93943833943834
46:34.247,0.9716796875,-0.13525390625,1.92529296875,-7.89642333984375,-11.03973388671875,2.3345947265625,22.79072039072039,-34.635897435897434,59.975579975579976,-0.19482421875,2.03125,0.021484375,-3.12042236328125,-0.89263916015625,0.946044921875,-40.63345543345543,-111.55457875457876,-3.598534798534798,-0.0205078125,1.51171875,-1.3125,-0.6561279296875,0.885009765625,1.70135498046875,-101.50866910866911,-14.244200244200243,-25.93943833943834
46:35.076,0.88623046875,-0.13671875,1.82861328125,-0.51116943359375,1.77764892578125,1.09100341796875,23.54041514041514,-33.88620268620269,56.526984126984125,-0.18359375,2.0224609375,-0.00830078125,-3.25775146484375,0.12969970703125,0.762939453125,-41.38315018315018,-111.1047619047619,-2.848840048840049,-0.02099609375,1.5068359375,-1.31103515625,-0.84686279296875,1.007080078125,1.73187255859375,-101.80854700854701,-13.044688644688645,-26.23931623931624
46:35.905,0.93115234375,-0.146484375,1.83203125,-1.190185546875,1.5869140625,0.1373291015625,23.54041514041514,-32.08693528693529,57.57655677655677,-0.177734375,2.033203125,0.0234375,-3.6773681640625,-0.1983642578125,1.434326171875,-42.28278388278388,-111.4046398046398,-3.7484737484737485,-0.01513671875,1.50390625,-1.29296875,-1.18255615234375,0.8392333984375,1.48773193359375,-101.20879120879121,-12.894749694749695,-26.08937728937729
46:36.782,0.93115234375,-0.146484375,1.83203125,-0.335693359375,0.91552734375,0.78582763671875,22.64078144078144,-31.936996336996337,58.026373626373626,-0.189453125,2.02197265625,0.00927734375,-1.28173828125,0.4119873046875,0.75531005859375,-42.28278388278388,-112.15433455433455,-2.998778998778999,-0.0234375,1.517578125,-1.3203125,-0.946044921875,0.6256103515625,1.89971923828125,-101.50866910866911,-13.044688644688645,-27.588766788766787
46:37.563,0.9248046875,-0.11962890625,1.85302734375,-0.335693359375,0.91552734375,0.78582763671875,22.64078144078144,-31.936996336996337,58.026373626373626,-0.189453125,2.02197265625,0.00927734375,-2.92205810546875,0.244140625,0.92315673828125,-40.78339438339438,-111.4046398046398,-4.498168498168498,-0.01953125,1.5029296875,-1.30908203125,-0.93841552734375,0.8087158203125,1.51824951171875,-102.4083028083028,-13.944322344322345,-26.08937728937729
46:38.489,0.93408203125,-0.13525390625,1.8330078125,-0.86212158203125,1.2664794921875,0.29754638671875,22.64078144078144,-33.73626373626374,56.377045177045176,-0.1904296875,2.01611328125,-0.0009765625,-2.92205810546875,0.244140625,0.92315673828125,-40.033699633699634,-112.45421245421245,-3.7484737484737485,-0.01953125,1.5029296875,-1.30908203125,-0.93841552734375,0.8087158203125,1.51824951171875,-99.85934065934066,-14.394139194139193,-25.33968253968254
46:39.268,0.8017578125,-0.2275390625,1.92431640625,3.72314453125,5.19561767578125,1.9378662109375,23.84029304029304,-33.13650793650793,57.57655677655677,-0.1728515625,2.02734375,-0.0068359375,-2.7313232421875,0.06866455078125,0.79345703125,-40.033699633699634,-112.45421245421245,-3.7484737484737485,-0.02783203125,1.5078125,-1.31787109375,-0.70953369140625,0.7171630859375,1.678466796875,-99.85934065934066,-14.394139194139193,-25.33968253968254
46:40.049,0.828125,-0.1279296875,1.8017578125,7.31658935546875,-1.44195556640625,1.25885009765625,27.438827838827837,-26.08937728937729,68.07228327228327,-0.16357421875,2.0185546875,-0.005859375,-3.57818603515625,-0.3662109375,0.4425048828125,-41.832967032967034,-111.4046398046398,-4.048351648351648,-0.01611328125,1.513671875,-1.31396484375,-0.9307861328125,0.9307861328125,1.89971923828125,-101.20879120879121,-12.894749694749695,-26.389255189255188
46:40.828,0.828125,-0.1279296875,1.8017578125,-1.33514404296875,0.89263916015625,0.6256103515625,23.54041514041514,-29.987789987789988,59.52576312576312,-0.19091796875,2.02734375,0.0029296875,-3.22723388671875,1.10626220703125,0.32806396484375,-40.78339438339438,-109.9052503052503,-4.498168498168498,-0.02001953125,1.51025390625,-1.322265625,-1.434326171875,0.84686279296875,2.0294189453125,-100.75897435897436,-13.494505494505495,-26.539194139194137
46:41.608,0.9345703125,-0.10546875,1.82666015625,-1.33514404296875,0.89263916015625,0.6256103515625,23.54041514041514,-29.987789987789988,59.52576312576312,-0.1943359375,2.02197265625,0.0048828125,-3.4942626953125,-0.61798095703125,1.19781494140625,-40.48351648351648,-110.2051282051282,-3.4485958485958483,-0.02587890625,1.5107421875,-1.310546875,-0.762939453125,0.8697509765625,1.953125,-101.20879120879121,-15.143833943833943,-26.83907203907204
46:42.486,0.89013671875,-0.1201171875,1.83544921875,-1.30462646484375,3.01361083984375,-1.25885009765625,23.39047619047619,-32.236874236874236,55.92722832722833,-0.1943359375,2.02197265625,0.0048828125,-3.4942626953125,-0.61798095703125,1.19781494140625,-41.38315018315018,-109.75531135531135,-2.848840048840049,-0.02587890625,1.5107421875,-1.310546875,-0.762939453125,0.8697509765625,1.953125,-102.4083028083028,-13.944322344322345,-26.08937728937729
46:43.266,0.8193359375,-0.14794921875,1.88671875,1.85394287109375,-2.37274169921875,1.67083740234375,25.489621489621488,-31.187301587301587,60.72527472527472,-0.1943359375,2.01318359375,0.01123046875,-3.0364990234375,0.00762939453125,0.78582763671875,-41.38315018315018,-109.75531135531135,-2.848840048840049,-0.02197265625,1.5166015625,-1.314453125,-0.9765625,0.78582763671875,1.96075439453125,-102.4083028083028,-13.944322344322345,-26.08937728937729
46:44.095,0.72705078125,-0.095703125,1.87109375,-4.96673583984375,2.92205810546875,0.02288818359375,26.23931623931624,-27.288888888888888,62.82442002442002,-0.1962890625,2.02392578125,0.013671875,-3.0670166015625,-1.25885009765625,1.33514404296875,-41.533089133089135,-110.65494505494505,-4.498168498168498,-0.01904296875,1.51123046875,-1.3134765625,-0.89263916015625,0.57220458984375,1.86920166015625,-101.65860805860805,-14.694017094017093,-25.78949938949939
46:44.875,0.84375,-0.15087890625,1.88916015625,-4.35638427734375,-1.13677978515625,2.044677734375,25.78949938949939,-29.088156288156288,60.72527472527472,-0.19482421875,2.01416015625,0.00732421875,-1.35040283203125,0.60272216796875,0.54931640625,-41.533089133089135,-111.7045177045177,-1.9492063492063492,-0.0244140625,1.51416015625,-1.3212890625,0.9613037109375,0.41961669921875,1.12152099609375,-102.7081807081807,-12.594871794871795,-26.83907203907204
46:45.703,0.84375,-0.15087890625,1.88916015625,-4.35638427734375,-1.13677978515625,2.044677734375,26.08937728937729,-29.987789987789988,61.924786324786325,-0.123046875,2.017578125,0.08935546875,-2.6397705078125,-1.251220703125,1.708984375,-39.583882783882785,-110.804884004884,-4.648107448107448,-0.013671875,1.51318359375,-1.31640625,-0.396728515625,1.2054443359375,1.556396484375,-101.50866910866911,-14.544078144078144,-26.23931623931624
46:46.483,0.81884765625,-0.15185546875,1.87939453125,-2.716064453125,-1.1444091796875,-0.55694580078125,26.08937728937729,-29.987789987789988,61.924786324786325,-0.123046875,2.017578125,0.08935546875,-2.6397705078125,-1.251220703125,1.708984375,-42.43272283272283,-112.6041514041514,-0.7496947496947497,-0.013671875,1.51318359375,-1.31640625,-0.396728515625,1.2054443359375,1.556396484375,-102.7081807081807,-13.644444444444444,-26.389255189255188
46:47.263,0.8291015625,-0.130859375,1.896484375,-0.48065185546875,3.12042236328125,0.1373291015625,26.83907203907204,-29.388034188034187,63.12429792429792,-0.13623046875,2.01123046875,0.07666015625,-10.26153564453125,2.14385986328125,-0.3509521484375,-42.43272283272283,-112.6041514041514,-0.7496947496947497,-0.0205078125,1.51611328125,-1.314453125,-1.06048583984375,0.7476806640625,1.97601318359375,-102.7081807081807,-13.644444444444444,-26.389255189255188
46:48.043,0.95947265625,-0.3876953125,1.83349609375,-3.05938720703125,9.8724365234375,1.861572265625,25.78949938949939,-28.338461538461537,62.074725274725274,-0.0888671875,2.0361328125,0.05029296875,-6.18743896484375,-1.3427734375,2.13623046875,-39.883760683760684,-112.3042735042735,-2.548962148962149,-0.0244140625,1.50927734375,-1.3271484375,-0.92315673828125,0.92315673828125,1.9378662109375,-100.15921855921856,-13.344566544566543,-27.13894993894994
46:48.823,0.95947265625,-0.3876953125,1.83349609375,-0.17547607421875,6.99615478515625,-0.6561279296875,23.84029304029304,-34.186080586080585,65.37338217338217,-0.15185546875,2.03466796875,0.087890625,0.06866455078125,-1.48773193359375,-1.15203857421875,-41.832967032967034,-112.45421245421245,-4.498168498168498,-0.021484375,1.515625,-1.31005859375,-1.068115234375,0.55694580078125,1.76239013671875,-100.9089133089133,-11.845177045177044,-25.78949938949939
46:49.603,0.830078125,-0.24951171875,1.888671875,-0.17547607421875,6.99615478515625,-0.6561279296875,23.84029304029304,-34.186080586080585,65.37338217338217,-0.14404296875,2.02880859375,0.05419921875,-3.3416748046875,-0.17547607421875,1.07574462890625,-42.28278388278388,-110.95482295482294,-2.6989010989010986,-0.03076171875,1.5078125,-1.30078125,-0.6866455078125,0.5950927734375,1.86920166015625,-100.0092796092796,-14.244200244200243,-26.23931623931624
46:50.482,0.81005859375,-0.19189453125,1.87939453125,0.67901611328125,0.70953369140625,2.17437744140625,26.689133089133087,-29.987789987789988,64.32380952380952,-0.14404296875,2.02880859375,0.05419921875,-3.3416748046875,-0.17547607421875,1.07574462890625,-43.03247863247863,-110.65494505494505,-2.6989010989010986,-0.03076171875,1.5078125,-1.30078125,-1.2054443359375,1.2054443359375,1.54876708984375,-101.95848595848595,-14.694017094017093,-26.389255189255188
46:51.310,0.71923828125,-0.17138671875,1.90234375,-2.35748291015625,3.37982177734375,-4.49371337890625,26.23931623931624,-28.788278388278385,64.47374847374847,-0.15869140625,2.01904296875,0.115234375,-2.46429443359375,-0.37384033203125,1.19781494140625,-43.03247863247863,-110.65494505494505,-2.6989010989010986,-0.02294921875,1.51513671875,-1.31689453125,-1.2054443359375,1.2054443359375,1.54876708984375,-101.95848595848595,-14.694017094017093,-26.389255189255188
46:52.090,0.7685546875,-0.16845703125,1.904296875,-1.983642578125,3.44085693359375,-0.32806396484375,26.689133089133087,-28.93821733821734,65.67326007326007,-0.1337890625,2.0107421875,0.0908203125,-7.843017578125,0.16021728515625,1.922607421875,-42.13284493284493,-111.85445665445665,-0.4498168498168498,-0.02294921875,1.5126953125,-1.31201171875,-0.3204345703125,0.5950927734375,1.62506103515625,-101.05885225885226,-14.544078144078144,-25.489621489621488
46:52.870,0.7412109375,-0.14111328125,1.93994140625,-4.57000732421875,1.4495849609375,-1.0986328125,25.78949938949939,-29.388034188034187,66.27301587301586,-0.169921875,2.0322265625,0.09716796875,-2.5482177734375,-0.7171630859375,0.091552734375,-40.63345543345543,-110.804884004884,0.29987789987789987,-0.029296875,1.5126953125,-1.2939453125,-0.7476806640625,1.15203857421875,1.44195556640625,-100.9089133089133,-13.944322344322345,-25.78949938949939
46:53.699,0.7412109375,-0.14111328125,1.93994140625,-4.57000732421875,1.4495849609375,-1.0986328125,26.08937728937729,-29.987789987789988,61.924786324786325,-0.1708984375,2.0283203125,0.10888671875,-2.60162353515625,0.823974609375,0.67901611328125,-42.28278388278388,-111.4046398046398,-0.29987789987789987,-0.02294921875,1.5126953125,-1.31396484375,-1.0528564453125,0.66375732421875,1.57928466796875,-101.95848595848595,-15.143833943833943,-27.13894993894994
46:54.527,0.763671875,-0.1650390625,1.89208984375,-1.9073486328125,-1.1138916015625,-1.09100341796875,26.08937728937729,-29.987789987789988,61.924786324786325,-0.1708984375,2.0283203125,0.10888671875,-3.72314453125,-0.0762939453125,0.91552734375,-41.832967032967034,-110.95482295482294,0.14993894993894993,-0.02294921875,1.5126953125,-1.31396484375,-1.0528564453125,0.93841552734375,1.65557861328125,-102.10842490842491,-14.843956043956043,-25.93943833943834
46:55.307,0.779296875,-0.17041015625,1.89013671875,-1.4190673828125,2.41851806640625,-3.1585693359375,23.84029304029304,-27.88864468864469,62.67448107448107,-0.1669921875,2.0263671875,0.11669921875,-3.72314453125,-0.0762939453125,0.91552734375,-41.832967032967034,-110.95482295482294,0.14993894993894993,-0.03271484375,1.513671875,-1.30517578125,-1.0528564453125,0.93841552734375,1.65557861328125,-102.10842490842491,-14.843956043956043,-25.93943833943834
46:56.185,0.7958984375,-0.16552734375,1.9306640625,-1.40380859375,0.51116943359375,2.90679931640625,23.690354090354088,-29.83785103785104,61.47496947496947,-0.15673828125,2.02490234375,0.11572265625,-3.204345703125,0.28228759765625,0.51116943359375,-41.683028083028084,-111.1047619047619,-1.1995115995115995,-0.0205078125,1.50732421875,-1.30908203125,-0.79345703125,1.42669677734375,1.3275146484375,-100.0092796092796,-14.544078144078144,-25.93943833943834
46:57.014,0.791015625,-0.17919921875,1.8984375,-1.80816650390625,2.166748046875,0.22125244140625,25.18974358974359,-29.388034188034187,62.82442002442002,-0.181640625,2.0224609375,0.0537109375,-4.119873046875,0.0152587890625,1.0986328125,-40.93333333333333,-111.85445665445665,0.0,-0.029296875,1.51708984375,-1.31005859375,-0.9307861328125,0.9002685546875,1.64031982421875,-101.20879120879121,-15.143833943833943,-26.83907203907204
46:57.794,0.791015625,-0.17919921875,1.8984375,-1.495361328125,1.25885009765625,0.946044921875,25.639560439560437,-29.687912087912085,62.67448107448107,-0.17529296875,2.02880859375,0.04833984375,-4.21905517578125,0.31280517578125,2.05230712890625,-39.28400488400488,-110.95482295482294,-1.6493284493284492,-0.017578125,1.50634765625,-1.3212890625,-0.8544921875,1.0833740234375,1.3427734375,-102.7081807081807,-12.145054945054945,-27.88864468864469
46:58.574,0.79541015625,-0.1904296875,1.873046875,-1.495361328125,1.25885009765625,0.946044921875,25.639560439560437,-29.687912087912085,62.67448107448107,-0.17529296875,2.02880859375,0.04833984375,-5.11932373046875,-0.335693359375,0.732421875,-42.43272283272283,-110.804884004884,-2.249084249084249,-0.017578125,1.50634765625,-1.3212890625,-0.244140625,1.0986328125,1.15203857421875,-99.85934065934066,-13.944322344322345,-26.08937728937729
46:59.402,0.76611328125,-0.2060546875,1.9013671875,-4.46319580078125,3.4942626953125,-1.01470947265625,24.44004884004884,-29.83785103785104,62.82442002442002,-0.1708984375,2.001953125,0.11279296875,-5.11932373046875,-0.335693359375,0.732421875,-42.43272283272283,-110.804884004884,-2.249084249084249,-0.029296875,1.5146484375,-1.31884765625,-0.244140625,1.0986328125,1.15203857421875,-99.85934065934066,-13.944322344322345,-26.08937728937729
47:00.182,0.77587890625,-0.2080078125,1.89111328125,-0.64849853515625,-6.4239501953125,4.5013427734375,24.589987789987788,-28.488400488400487,64.32380952380952,-0.15673828125,2.021484375,0.10400390625,-2.685546875,-0.8392333984375,0.75531005859375,-41.08327228327228,-111.4046398046398,-1.9492063492063492,-0.02587890625,1.509765625,-1.3056640625,-0.96893310546875,0.9613037109375,1.82342529296875,-101.20879120879121,-13.344566544566543,-26.08937728937729
47:00.962,0.7548828125,-0.1923828125,1.91259765625,-0.1678466796875,0.11444091796875,-1.0223388671875,26.23931623931624,-28.788278388278385,64.47374847374847,-0.16259765625,2.029296875,0.1123046875,-3.10516357421875,1.16729736328125,0.7476806640625,-40.78339438339438,-110.95482295482294,-0.29987789987789987,-0.0224609375,1.5078125,-1.31689453125,-1.129150390625,0.87738037109375,1.89971923828125,-100.75897435897436,-14.544078144078144,-28.638339438339436
47:01.791,0.7548828125,-0.1923828125,1.91259765625,-0.54168701171875,0.26702880859375,0.3814697265625,25.18974358974359,-28.338461538461537,64.47374847374847,-0.15966796875,2.04833984375,0.1181640625,2.44140625,1.54876708984375,0.81634521484375,-41.533089133089135,-110.95482295482294,-0.5997557997557997,-0.02392578125,1.505859375,-1.31396484375,-0.79345703125,0.89263916015625,1.53350830078125,-100.9089133089133,-14.394139194139193,-27.438827838827837
47:02.571,0.79248046875,-0.20654296875,1.89501953125,-0.54168701171875,0.26702880859375,0.3814697265625,25.18974358974359,-28.338461538461537,64.47374847374847,-0.15966796875,2.04833984375,0.1181640625,-3.0059814453125,0.09918212890625,1.0986328125,-40.63345543345543,-111.85445665445665,-0.4498168498168498,-0.02392578125,1.505859375,-1.31396484375,-0.90789794921875,0.92315673828125,1.73187255859375,-101.95848595848595,-13.944322344322345,-24.29010989010989
47:03.351,0.7744140625,-0.19287109375,1.8837890625,-0.92315673828125,0.6256103515625,0.1983642578125,26.08937728937729,-27.438827838827837,64.62368742368741,-0.16259765625,2.0166015625,0.11328125,-3.0059814453125,0.09918212890625,1.0986328125,-40.63345543345543,-111.85445665445665,-0.4498168498168498,-0.015625,1.50634765625,-1.31591796875,-0.90789794921875,0.92315673828125,1.73187255859375,-101.95848595848595,-13.944322344322345,-24.29010989010989
47:04.131,0.76708984375,-0.2001953125,1.8935546875,-1.44195556640625,1.15203857421875,-0.06866455078125,26.08937728937729,-29.687912087912085,62.97435897435897,-0.1650390625,2.0322265625,0.10009765625,-3.3111572265625,0.30517578125,0.823974609375,-40.93333333333333,-113.35384615384615,-0.4498168498168498,-0.0302734375,1.51513671875,-1.31640625,-0.9765625,0.98419189453125,1.47247314453125,-100.0092796092796,-14.244200244200243,-25.489621489621488
47:04.960,0.783203125,-0.2041015625,1.888671875,-1.15203857421875,0.96893310546875,0.16021728515625,27.588766788766787,-28.338461538461537,64.17387057387057,-0.1650390625,2.0185546875,0.1220703125,-3.86810302734375,-0.78582763671875,1.8463134765625,-40.93333333333333,-112.3042735042735,-0.4498168498168498,-0.015625,1.5107421875,-1.3125,-0.9918212890625,0.92315673828125,1.83868408203125,-100.0092796092796,-13.794383394383393,-27.588766788766787
47:05.740,0.783203125,-0.2041015625,1.888671875,-1.15203857421875,0.96893310546875,0.16021728515625,26.83907203907204,-27.288888888888888,63.873992673992674,-0.140625,2.01416015625,0.09619140625,-2.89154052734375,-0.0152587890625,0.72479248046875,-41.38315018315018,-109.75531135531135,0.0,-0.01708984375,1.50537109375,-1.30517578125,-1.0223388671875,0.6561279296875,1.800537109375,-101.95848595848595,-13.344566544566543,-26.83907203907204
47:06.520,0.8056640625,-0.208984375,1.853515625,0.244140625,0.2593994140625,-1.13677978515625,26.83907203907204,-27.288888888888888,63.873992673992674,-0.140625,2.01416015625,0.09619140625,-3.30352783203125,0.1068115234375,0.87738037109375,-40.78339438339438,-112.15433455433455,-0.29987789987789987,-0.01708984375,1.50537109375,-1.30517578125,-0.9613037109375,0.74005126953125,1.8157958984375,-102.4083028083028,-13.344566544566543,-26.08937728937729
47:07.349,0.77978515625,-0.19775390625,1.888671875,-1.03759765625,1.556396484375,0.12969970703125,24.88986568986569,-26.83907203907204,64.62368742368741,-0.16796875,2.01953125,0.09228515625,-3.30352783203125,0.1068115234375,0.87738037109375,-40.78339438339438,-112.15433455433455,-0.29987789987789987,-0.025390625,1.51513671875,-1.32275390625,-0.9613037109375,0.74005126953125,1.8157958984375,-102.4083028083028,-13.344566544566543,-26.08937728937729
47:08.129,0.6650390625,-0.13916015625,2.04736328125,10.38360595703125,2.37274169921875,4.2724609375,26.389255189255188,-29.987789987789988,65.67326007326007,-0.1572265625,2.02197265625,0.0986328125,-2.960205078125,1.71661376953125,0.51116943359375,-40.63345543345543,-110.804884004884,-1.1995115995115995,-0.021484375,1.51220703125,-1.3154296875,-0.7781982421875,0.9307861328125,1.71661376953125,-102.10842490842491,-11.995115995115995,-26.23931623931624
47:08.909,0.798828125,-0.1171875,1.92626953125,-3.56292724609375,5.7830810546875,-3.71551513671875,24.88986568986569,-29.238095238095237,61.924786324786325,-0.18408203125,2.0185546875,0.11474609375,-3.45611572265625,0.1068115234375,0.46539306640625,-41.38315018315018,-112.3042735042735,-0.7496947496947497,-0.01904296875,1.50634765625,-1.32275390625,-1.01470947265625,0.92315673828125,1.678466796875,-101.65860805860805,-12.594871794871795,-26.389255189255188
47:09.835,0.798828125,-0.1171875,1.92626953125,1.16729736328125,0.1220703125,2.61688232421875,23.54041514041514,-30.287667887667887,60.57533577533577,-0.193359375,2.0244140625,0.11279296875,-2.75421142578125,0.2593994140625,0.8544921875,-42.43272283272283,-110.804884004884,-0.7496947496947497,-0.0224609375,1.50732421875,-1.31689453125,-1.007080078125,0.74005126953125,2.03704833984375,-103.9076923076923,-13.494505494505495,-25.18974358974359
47:10.615,0.8037109375,-0.146484375,1.8701171875,1.16729736328125,0.1220703125,2.61688232421875,23.54041514041514,-30.287667887667887,60.57533577533577,-0.173828125,2.029296875,0.08642578125,-1.46484375,-1.76239013671875,1.1444091796875,-41.683028083028084,-111.85445665445665,0.29987789987789987,-0.0224609375,1.51318359375,-1.318359375,-1.0528564453125,1.1138916015625,1.678466796875,-100.75897435897436,-14.244200244200243,-26.539194139194137
47:11.395,0.515625,-0.11767578125,1.90673828125,-4.8828125,11.75689697265625,-15.472412109375,25.33968253968254,-30.287667887667887,62.67448107448107,-0.173828125,2.029296875,0.08642578125,-1.46484375,-1.76239013671875,1.1444091796875,-41.683028083028084,-111.85445665445665,0.29987789987789987,-0.0224609375,1.51318359375,-1.318359375,-1.0528564453125,1.1138916015625,1.678466796875,-100.75897435897436,-14.244200244200243,-26.539194139194137
47:12.175,0.80224609375,-0.0859375,1.82275390625,8.58306884765625,16.88385009765625,6.3629150390625,27.88864468864469,-25.93943833943834,66.57289377289376,-0.17822265625,2.02001953125,0.0869140625,-3.37982177734375,0.1983642578125,0.92315673828125,-42.58266178266178,-112.45421245421245,0.14993894993894993,-0.02197265625,1.5078125,-1.32568359375,-1.03759765625,0.6866455078125,1.8463134765625,-101.50866910866911,-15.593650793650793,-28.638339438339436
47:13.004,0.880859375,-0.154296875,1.83935546875,-2.716064453125,2.70843505859375,-0.030517578125,27.13894993894994,-27.438827838827837,61.32503052503052,-0.169921875,2.01513671875,0.09619140625,-3.18145751953125,-0.08392333984375,1.220703125,-42.13284493284493,-111.1047619047619,0.0,-0.01611328125,1.5107421875,-1.31103515625,-0.81634521484375,0.9307861328125,2.09808349609375,-101.05885225885226,-14.843956043956043,-27.288888888888888
47:13.784,0.880859375,-0.154296875,1.83935546875,-7.8582763671875,5.69915771484375,0.45013427734375,24.88986568986569,-29.687912087912085,61.924786324786325,-0.18115234375,2.02197265625,0.11767578125,-2.593994140625,-0.16021728515625,1.36566162109375,-38.98412698412698,-110.95482295482294,-0.8996336996336995,-0.025390625,1.51513671875,-1.306640625,-1.0528564453125,0.98419189453125,1.6937255859375,-101.65860805860805,-13.944322344322345,-26.83907203907204
47:14.612,0.828125,-0.16357421875,1.9091796875,-7.8582763671875,5.69915771484375,0.45013427734375,24.88986568986569,-29.687912087912085,61.924786324786325,-0.17822265625,2.0244140625,0.072265625,-3.23486328125,-0.1220703125,0.80108642578125,-40.63345543345543,-112.3042735042735,-2.249084249084249,-0.02490234375,1.50830078125,-1.310546875,-0.8087158203125,1.068115234375,1.6632080078125,-101.05885225885226,-14.544078144078144,-28.638339438339436
47:15.441,0.8193359375,-0.15869140625,1.8935546875,-1.4495849609375,3.4027099609375,-0.0762939453125,26.389255189255188,-29.687912087912085,62.67448107448107,-0.17822265625,2.0244140625,0.072265625,-3.23486328125,-0.1220703125,0.80108642578125,-39.13406593406593,-112.6041514041514,-1.799267399267399,-0.02490234375,1.50830078125,-1.310546875,-0.8087158203125,1.068115234375,1.6632080078125,-100.75897435897436,-14.244200244200243,-29.088156288156288
47:16.222,0.81103515625,-0.15087890625,1.88525390625,-0.90789794921875,-1.800537109375,0.6103515625,26.689133089133087,-28.188522588522588,61.32503052503052,-0.18505859375,2.02294921875,0.09033203125,-3.47900390625,0.26702880859375,0.58746337890625,-39.13406593406593,-112.6041514041514,-1.799267399267399,-0.02294921875,1.50830078125,-1.326171875,-0.99945068359375,1.0223388671875,1.617431640625,-100.75897435897436,-14.244200244200243,-29.088156288156288
47:17.001,0.48974609375,-0.150390625,1.97412109375,-8.99505615234375,22.430419921875,-13.81683349609375,27.13894993894994,-28.188522588522588,62.37460317460317,-0.18408203125,2.0244140625,0.09814453125,-3.39508056640625,-0.213623046875,1.33514404296875,-42.73260073260073,-112.3042735042735,-0.4498168498168498,-0.0263671875,1.51416015625,-1.31787109375,-1.15203857421875,0.8087158203125,1.62506103515625,-99.4095238095238,-13.944322344322345,-26.389255189255188
47:17.781,0.48974609375,-0.150390625,1.97412109375,-3.41033935546875,4.8370361328125,-0.81634521484375,27.588766788766787,-25.93943833943834,64.17387057387057,-0.185546875,2.01611328125,0.1025390625,-4.7607421875,-0.40435791015625,1.22833251953125,-41.08327228327228,-111.4046398046398,0.4498168498168498,-0.02294921875,1.5068359375,-1.31396484375,-0.77056884765625,0.78582763671875,1.53350830078125,-100.75897435897436,-13.044688644688645,-28.338461538461537
47:18.561,0.7900390625,-0.17919921875,1.91748046875,-3.41033935546875,4.8370361328125,-0.81634521484375,27.588766788766787,-25.93943833943834,64.17387057387057,-0.185546875,2.01611328125,0.1025390625,-1.77764892578125,0.28228759765625,1.0833740234375,-41.38315018315018,-110.5050061050061,-0.7496947496947497,-0.021484375,1.5048828125,-1.30615234375,-1.12152099609375,1.068115234375,1.80816650390625,-100.75897435897436,-15.593650793650793,-25.93943833943834
47:19.439,0.83349609375,-0.17919921875,1.8779296875,2.25830078125,-2.197265625,1.77001953125,26.23931623931624,-26.23931623931624,64.47374847374847,-0.166015625,2.0107421875,0.08837890625,-1.77764892578125,0.28228759765625,1.0833740234375,-39.733821733821735,-110.95482295482294,-1.3494505494505493,-0.021484375,1.5048828125,-1.30615234375,-1.12152099609375,1.068115234375,1.80816650390625,-101.95848595848595,-15.443711843711844,-27.438827838827837
47:20.267,0.8837890625,-0.16650390625,1.84619140625,-5.54656982421875,3.4942626953125,0.37384033203125,25.33968253968254,-28.93821733821734,62.37460317460317,-0.1884765625,2.02294921875,0.0888671875,-3.36456298828125,-1.9378662109375,0.60272216796875,-39.733821733821735,-110.95482295482294,-1.3494505494505493,-0.0205078125,1.513671875,-1.30712890625,-0.7171630859375,0.6561279296875,1.94549560546875,-101.95848595848595,-15.443711843711844,-27.438827838827837
47:21.047,0.83447265625,-0.1318359375,1.92822265625,-0.77056884765625,-7.9803466796875,0.823974609375,26.389255189255188,-28.93821733821734,60.87521367521367,-0.1904296875,2.02294921875,0.09375,-2.5634765625,-0.00762939453125,0.61798095703125,-40.78339438339438,-112.45421245421245,-1.6493284493284492,-0.0205078125,1.515625,-1.3115234375,-1.0833740234375,0.69427490234375,1.91497802734375,-101.50866910866911,-13.494505494505495,-28.03858363858364
47:21.925,0.8388671875,-0.15869140625,1.875,-0.45013427734375,1.86920166015625,0.00762939453125,25.18974358974359,-27.288888888888888,61.17509157509157,-0.16650390625,2.02392578125,0.115234375,-3.753662109375,-2.35748291015625,1.80816650390625,-40.18363858363858,-109.75531135531135,-1.4993894993894994,-0.0263671875,1.51025390625,-1.31005859375,-0.823974609375,0.69427490234375,1.617431640625,-101.95848595848595,-14.694017094017093,-25.78949938949939
47:22.705,0.8388671875,-0.15869140625,1.875,-0.45013427734375,1.86920166015625,0.00762939453125,26.539194139194137,-29.83785103785104,59.67570207570208,-0.19970703125,2.017578125,0.08740234375,-3.47900390625,0.762939453125,0.823974609375,-40.93333333333333,-109.75531135531135,-0.7496947496947497,-0.03515625,1.525390625,-1.30908203125,-0.6256103515625,0.60272216796875,2.11334228515625,-102.10842490842491,-14.843956043956043,-26.98901098901099
47:23.583,0.8330078125,-0.11962890625,1.88134765625,-2.11334228515625,1.82342529296875,0.41961669921875,26.539194139194137,-29.83785103785104,59.67570207570208,-0.19970703125,2.017578125,0.08740234375,-1.4190673828125,-3.80706787109375,11.2762451171875,-41.38315018315018,-111.1047619047619,-1.1995115995115995,-0.03515625,1.525390625,-1.30908203125,-1.35040283203125,0.8087158203125,2.52532958984375,-101.50866910866911,-15.293772893772893,-26.98901098901099
47:24.362,0.71533203125,-0.2451171875,1.97705078125,5.65338134765625,10.55908203125,11.016845703125,26.539194139194137,-31.936996336996337,59.37582417582417,-0.22705078125,2.02783203125,0.09814453125,-1.4190673828125,-3.80706787109375,11.2762451171875,-41.38315018315018,-111.1047619047619,-1.1995115995115995,-0.02734375,1.51123046875,-1.31201171875,-1.35040283203125,0.8087158203125,2.52532958984375,-101.50866910866911,-15.293772893772893,-26.98901098901099
47:25.143,0.59716796875,-0.21728515625,1.935546875,-4.638671875,8.44573974609375,-12.451171875,35.38559218559219,-31.637118437118435,74.06984126984126,-0.13427734375,2.01513671875,0.08056640625,-3.60870361328125,1.5106201171875,0.35858154296875,-41.08327228327228,-110.65494505494505,-1.3494505494505493,-0.02734375,1.501953125,-1.3203125,-0.8087158203125,0.79345703125,1.7852783203125,-102.4083028083028,-14.394139194139193,-26.389255189255188
47:26.020,0.779296875,-0.20263671875,1.9306640625,0.5340576171875,1.068115234375,-0.17547607421875,24.29010989010989,-29.687912087912085,69.87155067155066,-0.12109375,2.02880859375,0.09716796875,-2.46429443359375,1.3275146484375,0.52642822265625,-41.683028083028084,-111.85445665445665,0.29987789987789987,-0.02294921875,1.5078125,-1.31640625,-0.92315673828125,0.9002685546875,1.6937255859375,-102.7081807081807,-15.893528693528692,-27.13894993894994
47:26.800,0.779296875,-0.20263671875,1.9306640625,-1.33514404296875,1.06048583984375,-0.06866455078125,21.29133089133089,-34.036141636141636,65.82319902319902,-0.14013671875,2.02783203125,0.080078125,-2.87628173828125,-0.4119873046875,0.51116943359375,-40.033699633699634,-112.75409035409035,-0.5997557997557997,-0.0146484375,1.50634765625,-1.3212890625,-0.96893310546875,0.7476806640625,1.708984375,-100.15921855921856,-15.443711843711844,-27.438827838827837
47:27.580,0.75048828125,-0.19384765625,1.88818359375,-1.33514404296875,1.06048583984375,-0.06866455078125,21.29133089133089,-34.036141636141636,65.82319902319902,-0.14013671875,2.02783203125,0.080078125,-2.23541259765625,0.14495849609375,0.91552734375,-41.683028083028084,-113.35384615384615,-0.7496947496947497,-0.0146484375,1.50634765625,-1.3212890625,-0.93841552734375,0.9613037109375,1.8463134765625,-101.20879120879121,-13.644444444444444,-26.83907203907204
47:28.409,0.83056640625,-0.18701171875,1.8251953125,1.27410888671875,-3.34930419921875,3.53240966796875,22.79072039072039,-31.787057387057384,65.37338217338217,-0.140625,2.03173828125,0.0888671875,-2.23541259765625,0.14495849609375,0.91552734375,-41.683028083028084,-113.35384615384615,-0.7496947496947497,-0.0126953125,1.5068359375,-1.30615234375,-0.93841552734375,0.9613037109375,1.8463134765625,-101.20879120879121,-13.644444444444444,-26.83907203907204
47:29.189,0.79541015625,-0.17626953125,1.84619140625,-9.185791015625,12.09259033203125,3.45611572265625,22.19096459096459,-34.93577533577533,62.97435897435897,-0.13671875,2.03857421875,0.099609375,-4.119873046875,-2.25067138671875,1.28936767578125,-40.78339438339438,-112.45421245421245,-2.399023199023199,-0.01513671875,1.4990234375,-1.3134765625,-0.8392333984375,0.86212158203125,1.77764892578125,-100.75897435897436,-14.544078144078144,-25.93943833943834
47:29.969,0.607421875,-0.2705078125,1.9326171875,0.1983642578125,0.54168701171875,0.5035400390625,24.589987789987788,-30.287667887667887,66.12307692307692,-0.1279296875,2.0205078125,0.09326171875,-3.41033935546875,0.22125244140625,0.8697509765625,-41.832967032967034,-111.7045177045177,-2.399023199023199,-0.02392578125,1.50634765625,-1.31396484375,-0.9307861328125,0.640869140625,1.82342529296875,-100.6090354090354,-13.944322344322345,-27.438827838827837
47:30.749,0.607421875,-0.2705078125,1.9326171875,0.1983642578125,0.54168701171875,0.5035400390625,29.088156288156288,-25.93943833943834,75.71916971916971,-0.14501953125,2.02197265625,0.080078125,-3.3111572265625,-0.1068115234375,0.518798828125,-40.033699633699634,-112.45421245421245,-0.8996336996336995,-0.015625,1.5068359375,-1.314453125,-1.0223388671875,0.74005126953125,1.80816650390625,-102.4083028083028,-13.944322344322345,-26.83907203907204
47:31.529,0.89453125,-0.259765625,1.82958984375,10.0555419921875,-3.1585693359375,14.58740234375,29.088156288156288,-25.93943833943834,75.71916971916971,-0.14501953125,2.02197265625,0.080078125,-3.2196044921875,0.29754638671875,0.90789794921875,-40.93333333333333,-111.85445665445665,-2.249084249084249,-0.015625,1.5068359375,-1.314453125,-1.07574462890625,0.52642822265625,1.68609619140625,-100.6090354090354,-14.694017094017093,-26.83907203907204
47:32.309,0.7978515625,-0.185546875,1.91064453125,-0.79345703125,2.38037109375,0.05340576171875,27.738705738705736,-28.93821733821734,70.77118437118438,-0.15673828125,2.03759765625,0.07177734375,-3.2196044921875,0.29754638671875,0.90789794921875,-40.93333333333333,-111.85445665445665,-2.249084249084249,-0.02294921875,1.501953125,-1.31689453125,-1.07574462890625,0.52642822265625,1.68609619140625,-100.6090354090354,-14.694017094017093,-26.83907203907204
47:33.089,0.86376953125,-0.19873046875,1.87548828125,-0.2288818359375,-2.0294189453125,-1.89208984375,27.288888888888888,-28.788278388278385,68.67203907203907,-0.1279296875,2.02392578125,0.07958984375,-3.66973876953125,-0.66375732421875,1.10626220703125,-40.93333333333333,-112.3042735042735,-2.249084249084249,-0.02001953125,1.50927734375,-1.32763671875,-0.7476806640625,0.72479248046875,1.65557861328125,-100.0092796092796,-14.244200244200243,-28.338461538461537
47:33.917,0.81494140625,-0.1083984375,1.8994140625,-1.60980224609375,-1.2054443359375,0.3509521484375,24.589987789987788,-30.287667887667887,67.77240537240537,-0.16455078125,2.0205078125,0.10205078125,-2.166748046875,0.37384033203125,0.52642822265625,-41.533089133089135,-111.7045177045177,-1.9492063492063492,-0.0205078125,1.50537109375,-1.3232421875,-0.74005126953125,0.81634521484375,1.53350830078125,-100.6090354090354,-12.594871794871795,-27.88864468864469
47:34.698,0.81494140625,-0.1083984375,1.8994140625,-1.60980224609375,-1.2054443359375,0.3509521484375,24.589987789987788,-30.287667887667887,60.275457875457874,-0.17138671875,2.02880859375,0.08056640625,-2.7313232421875,0.57220458984375,0.9613037109375,-40.78339438339438,-113.2039072039072,-0.29987789987789987,-0.017578125,1.50830078125,-1.30810546875,-1.04522705078125,0.640869140625,1.8463134765625,-100.15921855921856,-14.394139194139193,-26.83907203907204
47:35.478,0.78857421875,-0.1123046875,1.92529296875,-4.7607421875,5.9814453125,0.37384033203125,24.589987789987788,-30.287667887667887,60.275457875457874,-0.17138671875,2.02880859375,0.08056640625,-2.7313232421875,0.57220458984375,0.9613037109375,-41.08327228327228,-112.15433455433455,-1.3494505494505493,-0.017578125,1.50830078125,-1.30810546875,-1.04522705078125,0.640869140625,1.8463134765625,-100.9089133089133,-11.845177045177044,-26.83907203907204
47:36.258,0.81640625,-0.0869140625,1.9580078125,2.83050537109375,-0.38909912109375,-0.640869140625,24.29010989010989,-33.58632478632479,60.87521367521367,-0.1689453125,2.015625,0.05859375,-3.31878662109375,0.02288818359375,0.06866455078125,-41.08327228327228,-112.15433455433455,-1.3494505494505493,-0.02197265625,1.51025390625,-1.32177734375,-0.98419189453125,0.701904296875,1.617431640625,-100.9089133089133,-11.845177045177044,-26.83907203907204
47:37.087,0.87841796875,-0.1279296875,1.94775390625,-7.8582763671875,45.0592041015625,1.53350830078125,24.88986568986569,-28.188522588522588,61.32503052503052,-0.19189453125,2.02392578125,0.06982421875,-3.143310546875,-0.2593994140625,0.6256103515625,-40.63345543345543,-113.05396825396825,-1.4993894993894994,-0.02587890625,1.50146484375,-1.31982421875,-0.8087158203125,1.04522705078125,1.67083740234375,-101.95848595848595,-13.944322344322345,-26.83907203907204
47:37.915,0.77880859375,-0.1337890625,1.8896484375,-0.8697509765625,1.03759765625,-0.213623046875,27.88864468864469,-27.288888888888888,64.47374847374847,-0.154296875,2.0205078125,0.09326171875,-3.5858154296875,0.26702880859375,0.43487548828125,-40.63345543345543,-109.75531135531135,-1.1995115995115995,-0.01708984375,1.50537109375,-1.31982421875,-0.95367431640625,0.6561279296875,1.76239013671875,-101.65860805860805,-15.443711843711844,-26.83907203907204
47:38.695,0.77880859375,-0.1337890625,1.8896484375,-0.8697509765625,1.03759765625,-0.213623046875,24.88986568986569,-30.287667887667887,62.67448107448107,-0.16943359375,2.0185546875,0.10107421875,-2.96783447265625,1.15203857421875,1.33514404296875,-42.13284493284493,-110.804884004884,-2.249084249084249,-0.0146484375,1.51220703125,-1.3193359375,-0.823974609375,0.9765625,1.617431640625,-101.65860805860805,-15.143833943833943,-27.88864468864469
47:39.475,0.82421875,-0.0634765625,1.75634765625,6.85882568359375,1.09100341796875,-4.669189453125,24.88986568986569,-30.287667887667887,62.67448107448107,-0.16943359375,2.0185546875,0.10107421875,-2.96783447265625,1.15203857421875,1.33514404296875,-40.63345543345543,-111.85445665445665,-2.249084249084249,-0.0146484375,1.51220703125,-1.3193359375,-0.823974609375,0.9765625,1.617431640625,-100.15921855921856,-12.894749694749695,-27.438827838827837
47:40.304,0.6572265625,-0.1337890625,1.94091796875,1.46484375,-6.72149658203125,-0.54168701171875,25.639560439560437,-30.737484737484735,60.275457875457874,-0.17431640625,2.02783203125,0.06787109375,-3.01361083984375,0.00762939453125,0.518798828125,-40.63345543345543,-111.85445665445665,-2.249084249084249,-0.01904296875,1.509765625,-1.32568359375,-0.84686279296875,0.9002685546875,1.53350830078125,-100.15921855921856,-12.894749694749695,-27.438827838827837
47:41.084,0.7314453125,-0.13232421875,1.88427734375,0.8087158203125,-4.26483154296875,-0.86212158203125,26.539194139194137,-28.03858363858364,66.57289377289376,-0.158203125,2.02783203125,0.09619140625,-3.3721923828125,-0.28228759765625,0.6561279296875,-40.78339438339438,-113.2039072039072,-1.3494505494505493,-0.01318359375,1.50537109375,-1.3193359375,-1.1444091796875,0.81634521484375,1.9378662109375,-102.10842490842491,-13.494505494505495,-25.93943833943834
47:41.864,0.712890625,-0.1474609375,1.85302734375,-9.95635986328125,13.214111328125,1.678466796875,25.33968253968254,-28.188522588522588,64.62368742368741,-0.166015625,2.0224609375,0.07275390625,-3.91387939453125,-1.42669677734375,0.885009765625,-41.08327228327228,-112.45421245421245,-0.8996336996336995,-0.00830078125,1.50341796875,-1.31298828125,-0.9307861328125,0.823974609375,1.71661376953125,-100.15921855921856,-15.143833943833943,-26.08937728937729
47:42.693,0.712890625,-0.1474609375,1.85302734375,-9.95635986328125,13.214111328125,1.678466796875,27.13894993894994,-23.99023199023199,69.12185592185592,-0.166015625,2.0048828125,0.09521484375,-2.15911865234375,-0.64849853515625,0.5645751953125,-41.08327228327228,-112.15433455433455,-1.6493284493284492,-0.01513671875,1.509765625,-1.31982421875,-0.86212158203125,0.5340576171875,1.91497802734375,-100.9089133089133,-16.49328449328449,-26.83907203907204
47:43.473,0.9326171875,-0.13623046875,1.88525390625,-1.4495849609375,0.5035400390625,-0.885009765625,27.13894993894994,-23.99023199023199,69.12185592185592,-0.166015625,2.0048828125,0.09521484375,-1.9073486328125,0.51116943359375,0.67138671875,-42.13284493284493,-110.804884004884,-0.7496947496947497,-0.01513671875,1.509765625,-1.31982421875,-1.04522705078125,0.8087158203125,1.70135498046875,-100.0092796092796,-14.244200244200243,-26.98901098901099
47:44.301,0.84716796875,-0.0947265625,1.869140625,-2.92205810546875,-1.07574462890625,2.7313232421875,26.23931623931624,-28.788278388278385,62.074725274725274,-0.1953125,2.03076171875,0.0732421875,-1.9073486328125,0.51116943359375,0.67138671875,-42.13284493284493,-110.804884004884,-0.7496947496947497,-0.02294921875,1.501953125,-1.31640625,-1.04522705078125,0.8087158203125,1.70135498046875,-100.0092796092796,-14.244200244200243,-26.98901098901099
47:45.130,0.763671875,-0.14501953125,1.8583984375,-0.7781982421875,3.47900390625,-0.90789794921875,25.639560439560437,-29.987789987789988,60.87521367521367,-0.18408203125,2.00927734375,0.083984375,-4.29534912109375,-0.16021728515625,0.640869140625,-41.08327228327228,-112.15433455433455,-1.9492063492063492,-0.00439453125,1.5048828125,-1.32763671875,-0.8392333984375,0.77056884765625,1.922607421875,-101.05885225885226,-14.843956043956043,-26.98901098901099
47:45.959,0.8271484375,-0.142578125,1.87353515625,-0.12969970703125,0.335693359375,-0.16021728515625,27.13894993894994,-28.93821733821734,62.97435897435897,-0.16943359375,2.021484375,0.0859375,-1.68609619140625,-0.4119873046875,1.495361328125,-40.78339438339438,-110.95482295482294,-0.8996336996336995,-0.0126953125,1.50390625,-1.31982421875,-0.9307861328125,0.78582763671875,1.51824951171875,-101.80854700854701,-15.293772893772893,-26.98901098901099
47:46.739,0.8271484375,-0.142578125,1.87353515625,-0.12969970703125,0.335693359375,-0.16021728515625,26.539194139194137,-29.83785103785104,63.873992673992674,-0.17578125,2.0234375,0.041015625,-2.4261474609375,0.63323974609375,0.42724609375,-42.43272283272283,-112.3042735042735,-1.4993894993894994,-0.01123046875,1.5078125,-1.306640625,-0.84686279296875,0.55694580078125,2.0904541015625,-102.10842490842491,-14.244200244200243,-25.18974358974359
47:47.518,0.88037109375,-0.11083984375,1.9384765625,-2.41851806640625,0.762939453125,1.617431640625,26.539194139194137,-29.83785103785104,63.873992673992674,-0.17578125,2.0234375,0.041015625,-3.51715087890625,-0.37384033203125,0.67901611328125,-40.48351648351648,-109.9052503052503,-2.998778998778999,-0.01123046875,1.5078125,-1.306640625,-0.98419189453125,0.8697509765625,1.68609619140625,-99.7094017094017,-14.244200244200243,-26.98901098901099
47:48.347,0.919921875,-0.1259765625,1.8544921875,-2.93731689453125,5.62286376953125,1.3275146484375,25.489621489621488,-29.388034188034187,61.17509157509157,-0.185546875,2.01806640625,0.06640625,-3.51715087890625,-0.37384033203125,0.67901611328125,-40.48351648351648,-109.9052503052503,-2.998778998778999,-0.0146484375,1.505859375,-1.31640625,-0.98419189453125,0.8697509765625,1.68609619140625,-99.7094017094017,-14.244200244200243,-26.98901098901099
47:49.127,0.81982421875,-0.13720703125,1.8837890625,-1.9073486328125,1.800537109375,1.220703125,28.788278388278385,-29.687912087912085,61.924786324786325,-0.17431640625,2.02587890625,0.06298828125,-3.5247802734375,-2.93731689453125,1.678466796875,-42.58266178266178,-112.15433455433455,-1.9492063492063492,-0.01025390625,1.51220703125,-1.314453125,-0.91552734375,0.6256103515625,1.739501953125,-103.45787545787546,-14.694017094017093,-25.33968253968254
47:49.908,0.685546875,-0.15966796875,1.9501953125,2.349853515625,1.70135498046875,1.4801025390625,26.23931623931624,-27.288888888888888,63.12429792429792,-0.1552734375,2.02734375,0.08251953125,-2.70843505859375,1.6632080078125,1.10626220703125,-40.48351648351648,-110.95482295482294,-1.9492063492063492,-0.01416015625,1.50390625,-1.3154296875,-0.95367431640625,1.02996826171875,1.83868408203125,-100.9089133089133,-13.944322344322345,-25.78949938949939
47:50.688,0.685546875,-0.15966796875,1.9501953125,2.349853515625,1.70135498046875,1.4801025390625,27.438827838827837,-28.488400488400487,65.07350427350427,-0.18115234375,2.02587890625,0.064453125,-2.960205078125,0.885009765625,0.20599365234375,-42.13284493284493,-112.6041514041514,0.5997557997557997,-0.01171875,1.513671875,-1.31591796875,-0.8544921875,0.81634521484375,1.7242431640625,-101.95848595848595,-12.894749694749695,-27.88864468864469
47:51.468,0.81103515625,-0.150390625,1.88330078125,-0.91552734375,1.220703125,-0.03814697265625,27.438827838827837,-28.488400488400487,65.07350427350427,-0.18115234375,2.02587890625,0.064453125,-2.960205078125,0.885009765625,0.20599365234375,-39.13406593406593,-111.85445665445665,-3.2986568986568985,-0.01171875,1.513671875,-1.31591796875,-1.07574462890625,0.74005126953125,1.8768310546875,-100.9089133089133,-14.694017094017093,-26.83907203907204
47:52.296,0.77978515625,-0.14404296875,1.8798828125,-1.5716552734375,0.4425048828125,0.22125244140625,26.23931623931624,-28.03858363858364,63.12429792429792,-0.1650390625,2.02783203125,0.087890625,-3.4637451171875,-0.4730224609375,1.39617919921875,-39.13406593406593,-111.85445665445665,-3.2986568986568985,-0.01904296875,1.5078125,-1.326171875,-1.07574462890625,0.74005126953125,1.8768310546875,-100.9089133089133,-14.694017094017093,-26.83907203907204
47:53.125,0.810546875,-0.146484375,1.88330078125,-0.8544921875,1.62506103515625,0.213623046875,25.489621489621488,-27.738705738705736,64.92356532356533,-0.1708984375,2.02001953125,0.07666015625,-3.1280517578125,0.17547607421875,1.068115234375,-42.58266178266178,-112.75409035409035,-2.399023199023199,-0.0185546875,1.50634765625,-1.3095703125,-1.2359619140625,1.02996826171875,1.89208984375,-100.9089133089133,-13.944322344322345,-27.88864468864469
47:54.003,0.8046875,-0.150390625,1.89599609375,-1.251220703125,2.0904541015625,-0.1983642578125,26.539194139194137,-27.738705738705736,61.774847374847376,-0.16064453125,2.02880859375,0.09521484375,-4.0435791015625,-0.640869140625,1.312255859375,-41.683028083028084,-110.804884004884,-1.1995115995115995,-0.0224609375,1.50634765625,-1.3212890625,-1.0223388671875,0.61798095703125,1.800537109375,-100.3091575091575,-13.794383394383393,-25.18974358974359
47:54.783,0.8046875,-0.150390625,1.89599609375,-1.1749267578125,0.72479248046875,-0.28228759765625,26.689133089133087,-27.88864468864469,65.07350427350427,-0.15771484375,2.02197265625,0.09375,-3.72314453125,0.78582763671875,0.946044921875,-41.38315018315018,-110.5050061050061,-0.4498168498168498,-0.00927734375,1.49755859375,-1.3271484375,-0.8392333984375,0.92315673828125,1.85394287109375,-102.10842490842491,-14.244200244200243,-26.98901098901099
47:55.577,0.82470703125,-0.15576171875,1.8740234375,-1.1749267578125,0.72479248046875,-0.28228759765625,26.689133089133087,-27.88864468864469,65.07350427350427,-0.15771484375,2.02197265625,0.09375,-2.15911865234375,1.4801025390625,0.640869140625,-39.733821733821735,-111.7045177045177,-1.3494505494505493,-0.00927734375,1.49755859375,-1.3271484375,-1.0528564453125,0.335693359375,1.52587890625,-101.65860805860805,-14.394139194139193,-26.389255189255188
47:56.440,0.77734375,-0.14697265625,1.90966796875,-1.19781494140625,2.67791748046875,0.1373291015625,26.83907203907204,-28.788278388278385,65.22344322344323,-0.16552734375,2.01953125,0.0673828125,-2.15911865234375,1.4801025390625,0.640869140625,-39.28400488400488,-111.4046398046398,-2.399023199023199,-0.01708984375,1.501953125,-1.31982421875,-1.0528564453125,0.335693359375,1.52587890625,-101.50866910866911,-13.494505494505495,-27.288888888888888
47:57.220,0.732421875,-0.14013671875,1.861328125,-3.814697265625,3.9520263671875,-0.67138671875,26.08937728937729,-28.188522588522588,64.62368742368741,-0.18212890625,2.02685546875,0.0517578125,-3.0670166015625,-0.2593994140625,0.518798828125,-39.28400488400488,-111.4046398046398,-2.399023199023199,-0.015625,1.5087890625,-1.3369140625,-0.7781982421875,0.90789794921875,2.00653076171875,-101.50866910866911,-13.494505494505495,-27.288888888888888
47:58.000,0.81591796875,-0.1416015625,1.8984375,-1.12152099609375,0.90789794921875,0.12969970703125,26.23931623931624,-27.288888888888888,64.17387057387057,-0.1767578125,2.02099609375,0.0712890625,-3.88336181640625,-0.5035400390625,1.3275146484375,-40.78339438339438,-109.9052503052503,-1.3494505494505493,-0.0166015625,1.51123046875,-1.32373046875,-0.99945068359375,0.95367431640625,1.861572265625,-100.3091575091575,-13.794383394383393,-28.338461538461537
47:58.780,0.81591796875,-0.1416015625,1.8984375,8.7738037109375,3.6773681640625,8.1787109375,26.08937728937729,-27.88864468864469,65.07350427350427,-0.154296875,2.03466796875,0.0908203125,-3.7078857421875,0.3662109375,0.946044921875,-43.18241758241758,-112.3042735042735,-0.7496947496947497,-0.00634765625,1.50634765625,-1.31982421875,-0.8697509765625,0.78582763671875,1.57928466796875,-101.95848595848595,-14.394139194139193,-26.389255189255188
47:59.560,0.83740234375,-0.11767578125,1.828125,8.7738037109375,3.6773681640625,8.1787109375,26.08937728937729,-27.88864468864469,65.07350427350427,-0.154296875,2.03466796875,0.0908203125,-2.8533935546875,0.05340576171875,0.66375732421875,-40.033699633699634,-111.7045177045177,0.14993894993894993,-0.0078125,1.49951171875,-1.31640625,-0.9002685546875,0.9307861328125,1.678466796875,-101.05885225885226,-14.544078144078144,-26.539194139194137
48:00.438,0.80078125,-0.13720703125,1.9013671875,-0.3204345703125,1.1444091796875,-0.3662109375,25.639560439560437,-27.88864468864469,64.62368742368741,-0.1708984375,2.01123046875,0.0810546875,-2.8533935546875,0.05340576171875,0.66375732421875,-42.58266178266178,-112.45421245421245,-0.29987789987789987,-0.0078125,1.49951171875,-1.31640625,-0.9002685546875,0.9307861328125,1.678466796875,-100.6090354090354,-14.394139194139193,-27.438827838827837
48:01.266,0.8935546875,-0.18408203125,1.93603515625,-3.44085693359375,-1.64031982421875,4.50897216796875,26.539194139194137,-29.088156288156288,63.42417582417582,-0.16357421875,2.021484375,0.0810546875,-2.86865234375,1.1444091796875,0.96893310546875,-42.58266178266178,-112.45421245421245,-0.29987789987789987,-0.015625,1.5048828125,-1.3154296875,-0.640869140625,0.89263916015625,1.6021728515625,-100.6090354090354,-14.394139194139193,-27.438827838827837
48:02.095,0.7861328125,-0.150390625,1.89990234375,-2.0599365234375,2.20489501953125,0.4425048828125,26.23931623931624,-28.788278388278385,64.47374847374847,-0.1708984375,2.01953125,0.0888671875,-4.17327880859375,-0.885009765625,1.50299072265625,-40.78339438339438,-111.7045177045177,-0.5997557997557997,-0.01708984375,1.50390625,-1.3154296875,-0.9765625,0.6866455078125,1.9073486328125,-100.0092796092796,-14.544078144078144,-26.539194139194137
48:02.875,0.79931640625,-0.1796875,1.900390625,2.05230712890625,-10.00213623046875,5.51605224609375,27.588766788766787,-28.03858363858364,65.22344322344323,-0.142578125,2.01611328125,0.091796875,-2.349853515625,0.1678466796875,0.41961669921875,-40.033699633699634,-113.95360195360195,-0.5997557997557997,-0.0146484375,1.50537109375,-1.3212890625,-0.91552734375,0.84686279296875,1.983642578125,-101.50866910866911,-14.843956043956043,-29.388034188034187
48:03.655,0.79931640625,-0.1796875,1.900390625,2.05230712890625,-10.00213623046875,5.51605224609375,27.588766788766787,-28.03858363858364,65.22344322344323,-0.15869140625,2.02294921875,0.07373046875,-2.3193359375,0.5950927734375,0.98419189453125,-39.733821733821735,-112.45421245421245,0.7496947496947497,-0.0146484375,1.494140625,-1.3251953125,-1.13677978515625,0.79345703125,1.53350830078125,-100.3091575091575,-13.494505494505495,-26.539194139194137
48:04.484,0.81591796875,-0.18115234375,1.82080078125,10.36834716796875,10.47515869140625,-2.26593017578125,27.288888888888888,-29.088156288156288,64.92356532356533,-0.15869140625,2.02294921875,0.07373046875,-2.3193359375,0.5950927734375,0.98419189453125,-40.18363858363858,-111.55457875457876,-1.1995115995115995,-0.0146484375,1.494140625,-1.3251953125,-0.84686279296875,0.55694580078125,1.86920166015625,-101.50866910866911,-13.794383394383393,-26.23931623931624
48:05.313,0.8818359375,-0.14990234375,1.8466796875,0.48065185546875,-6.256103515625,3.12042236328125,25.78949938949939,-27.288888888888888,65.82319902319902,-0.1728515625,2.02001953125,0.07666015625,-4.119873046875,-0.5645751953125,1.678466796875,-40.18363858363858,-111.55457875457876,-1.1995115995115995,-0.015625,1.50439453125,-1.32421875,-0.84686279296875,0.55694580078125,1.86920166015625,-101.50866910866911,-13.794383394383393,-26.23931623931624
48:06.141,0.73291015625,-0.12646484375,1.93212890625,-6.8206787109375,-1.74713134765625,-0.0762939453125,27.13894993894994,-27.438827838827837,64.32380952380952,-0.17578125,2.01806640625,0.0888671875,-2.99835205078125,-0.0457763671875,0.84686279296875,-41.08327228327228,-111.4046398046398,-1.3494505494505493,-0.013671875,1.5087890625,-1.31494140625,-0.8544921875,0.6561279296875,1.57928466796875,-101.65860805860805,-14.394139194139193,-27.88864468864469
48:06.922,0.74462890625,-0.150390625,1.88037109375,-0.640869140625,1.8310546875,-0.43487548828125,26.08937728937729,-27.88864468864469,65.37338217338217,-0.16748046875,2.01806640625,0.09033203125,-3.22723388671875,-0.4425048828125,1.0833740234375,-42.13284493284493,-111.1047619047619,0.0,-0.01318359375,1.50390625,-1.31884765625,-0.8087158203125,0.95367431640625,1.922607421875,-100.9089133089133,-13.644444444444444,-25.78949938949939
48:07.799,0.74462890625,-0.150390625,1.88037109375,-1.54876708984375,0.16021728515625,-0.2288818359375,26.23931623931624,-26.539194139194137,64.17387057387057,-0.181640625,2.02783203125,0.087890625,-4.608154296875,-0.030517578125,0.98419189453125,-39.883760683760684,-111.1047619047619,-0.7496947496947497,-0.01220703125,1.50390625,-1.31103515625,-0.823974609375,1.0986328125,1.57928466796875,-100.75897435897436,-14.843956043956043,-26.539194139194137
48:08.628,0.72119140625,-0.15966796875,1.90234375,-1.54876708984375,0.16021728515625,-0.2288818359375,26.23931623931624,-26.539194139194137,64.17387057387057,-0.14990234375,2.02783203125,0.091796875,-3.50189208984375,0.55694580078125,1.64794921875,-42.43272283272283,-113.05396825396825,-2.548962148962149,-0.015625,1.50634765625,-1.3115234375,-1.1444091796875,0.9765625,1.50299072265625,-100.9089133089133,-13.344566544566543,-28.488400488400487
48:09.408,0.47412109375,-0.05615234375,1.82568359375,4.058837890625,-1.64031982421875,-10.0250244140625,28.788278388278385,-25.03980463980464,66.72283272283272,-0.14990234375,2.02783203125,0.091796875,-3.50189208984375,0.55694580078125,1.64794921875,-42.43272283272283,-113.05396825396825,-2.548962148962149,-0.015625,1.50634765625,-1.3115234375,-1.1444091796875,0.9765625,1.50299072265625,-100.9089133089133,-13.344566544566543,-28.488400488400487
48:10.188,0.7490234375,-0.1328125,1.75439453125,-5.39398193359375,-3.7078857421875,-8.24737548828125,26.08937728937729,-27.88864468864469,65.67326007326007,-0.1513671875,2.00634765625,0.099609375,-1.6937255859375,-1.3580322265625,1.9683837890625,-40.18363858363858,-111.85445665445665,-1.1995115995115995,-0.01171875,1.50146484375,-1.31396484375,-0.81634521484375,0.87738037109375,1.4190673828125,-101.20879120879121,-13.944322344322345,-26.389255189255188
48:10.968,0.8515625,-0.12744140625,1.87109375,1.0986328125,2.838134765625,-1.068115234375,29.088156288156288,-28.03858363858364,65.22344322344323,-0.158203125,2.0107421875,0.095703125,-1.85394287109375,-0.57220458984375,1.5106201171875,-42.43272283272283,-110.05518925518925,-1.1995115995115995,-0.00830078125,1.50537109375,-1.326171875,-0.732421875,1.068115234375,1.86920166015625,-100.75897435897436,-13.794383394383393,-26.539194139194137
48:11.748,0.8515625,-0.12744140625,1.87109375,1.0986328125,2.838134765625,-1.068115234375,28.338461538461537,-28.788278388278385,62.82442002442002,-0.1650390625,2.037109375,0.09521484375,-3.94439697265625,0.3814697265625,1.04522705078125,-40.78339438339438,-112.15433455433455,0.4498168498168498,-0.0126953125,1.501953125,-1.32421875,-0.8544921875,0.7171630859375,1.59454345703125,-100.6090354090354,-15.143833943833943,-26.83907203907204
48:12.528,0.76171875,-0.1181640625,1.833984375,0.67901611328125,4.17327880859375,-2.26593017578125,28.338461538461537,-28.788278388278385,62.82442002442002,-0.1650390625,2.037109375,0.09521484375,-2.7313232421875,-0.0152587890625,0.5340576171875,-39.28400488400488,-110.2051282051282,-0.5997557997557997,-0.0126953125,1.501953125,-1.32421875,-0.9307861328125,0.6561279296875,1.94549560546875,-100.9089133089133,-14.394139194139193,-27.13894993894994
48:13.308,0.7978515625,-0.12939453125,1.9326171875,-1.800537109375,-1.10626220703125,-0.38909912109375,29.83785103785104,-26.389255189255188,64.32380952380952,-0.17236328125,2.02490234375,0.11083984375,-2.7313232421875,-0.0152587890625,0.5340576171875,-39.28400488400488,-110.2051282051282,-0.5997557997557997,-0.0205078125,1.5048828125,-1.31591796875,-0.9307861328125,0.6561279296875,1.94549560546875,-100.9089133089133,-14.394139194139193,-27.13894993894994
48:14.137,0.8134765625,-0.1328125,1.88427734375,-1.07574462890625,1.1749267578125,-0.05340576171875,26.389255189255188,-26.389255189255188,64.02393162393162,-0.1806640625,2.0205078125,0.08642578125,-2.95257568359375,0.152587890625,0.60272216796875,-41.533089133089135,-110.65494505494505,1.799267399267399,-0.00634765625,1.49755859375,-1.326171875,-0.93841552734375,0.86212158203125,1.74713134765625,-101.65860805860805,-14.394139194139193,-26.389255189255188
48:14.917,0.69775390625,-0.14306640625,1.935546875,-0.9307861328125,1.03759765625,0.05340576171875,27.88864468864469,-27.738705738705736,62.52454212454212,-0.17822265625,2.01953125,0.08349609375,-4.23431396484375,-0.2593994140625,0.79345703125,-40.033699633699634,-111.7045177045177,-1.6493284493284492,-0.0244140625,1.505859375,-1.3134765625,-0.54168701171875,1.04522705078125,1.79290771484375,-100.9089133089133,-14.694017094017093,-26.83907203907204
48:15.697,0.69775390625,-0.14306640625,1.935546875,-0.9307861328125,1.03759765625,0.05340576171875,28.188522588522588,-23.99023199023199,67.77240537240537,-0.1796875,2.03173828125,0.08203125,-4.1656494140625,1.0528564453125,0.9765625,-41.08327228327228,-111.4046398046398,-0.8996336996336995,-0.01123046875,1.49462890625,-1.32177734375,-0.66375732421875,0.946044921875,1.36566162109375,-100.6090354090354,-14.694017094017093,-26.83907203907204
48:16.477,0.6396484375,-0.13720703125,1.9599609375,-1.27410888671875,3.662109375,3.448486328125,28.188522588522588,-23.99023199023199,67.77240537240537,-0.1796875,2.03173828125,0.08203125,-4.1656494140625,1.0528564453125,0.9765625,-40.48351648351648,-111.7045177045177,-1.6493284493284492,-0.01123046875,1.49462890625,-1.32177734375,-0.66375732421875,0.946044921875,1.36566162109375,-102.55824175824175,-14.544078144078144,-26.539194139194137
48:17.305,0.71826171875,-0.11083984375,1.9482421875,2.1514892578125,7.57598876953125,-3.814697265625,28.338461538461537,-24.14017094017094,66.87277167277168,-0.1767578125,2.01611328125,0.056640625,-2.685546875,1.96075439453125,0.3662109375,-40.48351648351648,-111.7045177045177,-1.6493284493284492,-0.01123046875,1.50830078125,-1.31787109375,-0.7171630859375,0.86212158203125,1.67083740234375,-102.55824175824175,-14.544078144078144,-26.539194139194137
48:18.085,0.6435546875,-0.09228515625,1.98583984375,-6.4849853515625,14.5263671875,3.94439697265625,27.288888888888888,-25.489621489621488,66.87277167277168,-0.18310546875,2.02392578125,0.0810546875,-2.9449462890625,0.06866455078125,0.51116943359375,-41.08327228327228,-112.15433455433455,-2.399023199023199,-0.013671875,1.5029296875,-1.3251953125,-0.885009765625,0.74005126953125,1.617431640625,-101.65860805860805,-13.644444444444444,-27.13894993894994
48:18.914,0.689453125,-0.154296875,1.951171875,-1.80816650390625,-0.2288818359375,-0.762939453125,29.088156288156288,-25.18974358974359,67.62246642246642,-0.169921875,2.01416015625,0.09375,-3.4332275390625,-0.08392333984375,1.6326904296875,-39.733821733821735,-111.4046398046398,-1.3494505494505493,-0.009765625,1.51171875,-1.31494140625,-0.79345703125,1.0528564453125,1.94549560546875,-100.0092796092796,-14.544078144078144,-27.588766788766787
48:19.694,0.689453125,-0.154296875,1.951171875,-1.80816650390625,-0.2288818359375,-0.762939453125,30.137728937728937,-24.14017094017094,66.87277167277168,-0.1650390625,2.0107421875,0.095703125,-3.51715087890625,-0.701904296875,1.18255615234375,-40.48351648351648,-112.15433455433455,-2.6989010989010986,-0.00048828125,1.50341796875,-1.32958984375,-0.72479248046875,0.86212158203125,1.5716552734375,-101.95848595848595,-14.394139194139193,-26.389255189255188
48:20.474,0.75341796875,-0.15185546875,1.96826171875,-2.83050537109375,-11.22283935546875,-0.43487548828125,30.137728937728937,-24.14017094017094,66.87277167277168,-0.1650390625,2.0107421875,0.095703125,-3.51715087890625,-0.701904296875,1.18255615234375,-40.93333333333333,-111.1047619047619,-1.1995115995115995,-0.00048828125,1.50341796875,-1.32958984375,-0.72479248046875,0.86212158203125,1.5716552734375,-100.75897435897436,-14.244200244200243,-26.23931623931624
48:21.254,0.74755859375,-0.13134765625,1.9072265625,-1.28936767578125,0.0152587890625,0.64849853515625,30.437606837606836,-25.18974358974359,67.92234432234432,-0.1669921875,2.02099609375,0.0830078125,-1.8768310546875,1.09100341796875,0.37384033203125,-40.93333333333333,-111.1047619047619,-1.1995115995115995,-0.01708984375,1.50732421875,-1.31201171875,-0.75531005859375,0.9002685546875,1.73187255859375,-100.75897435897436,-14.244200244200243,-26.23931623931624
48:22.034,0.748046875,-0.130859375,1.91259765625,-0.93841552734375,0.3509521484375,-0.6103515625,28.338461538461537,-27.738705738705736,64.92356532356533,-0.1826171875,2.02587890625,0.087890625,-2.62451171875,0.69427490234375,0.7476806640625,-41.683028083028084,-113.05396825396825,-1.799267399267399,-0.00244140625,1.51513671875,-1.32275390625,-0.640869140625,0.69427490234375,1.6632080078125,-102.10842490842491,-16.043467643467643,-28.03858363858364
48:22.814,0.748046875,-0.130859375,1.91259765625,-2.0751953125,2.96783447265625,-2.61688232421875,27.738705738705736,-26.08937728937729,66.12307692307692,-0.29248046875,2.0048828125,0.1015625,-4.17327880859375,2.67791748046875,-3.04412841796875,-42.28278388278388,-110.95482295482294,-0.5997557997557997,-0.01318359375,1.5068359375,-1.32275390625,-0.77056884765625,0.99945068359375,1.2664794921875,-100.3091575091575,-13.794383394383393,-27.588766788766787
48:23.643,1.119140625,0.02490234375,1.85107421875,-2.0751953125,2.96783447265625,-2.61688232421875,27.738705738705736,-26.08937728937729,66.12307692307692,-0.1533203125,2.01953125,0.07763671875,-0.7476806640625,0.64849853515625,-0.1678466796875,-39.883760683760684,-108.25592185592186,0.29987789987789987,-0.0048828125,1.50830078125,-1.31982421875,-1.0223388671875,0.7781982421875,1.93023681640625,-101.80854700854701,-15.293772893772893,-27.588766788766787
48:24.423,0.7197265625,-0.1630859375,1.9228515625,-1.68609619140625,4.63104248046875,-0.9765625,34.93577533577533,-44.08205128205128,60.125518925518925,-0.1533203125,2.01953125,0.07763671875,-0.7476806640625,0.64849853515625,-0.1678466796875,-41.683028083028084,-110.804884004884,-0.7496947496947497,-0.0048828125,1.50830078125,-1.31982421875,-1.0223388671875,0.7781982421875,1.93023681640625,-100.9089133089133,-13.644444444444444,-26.08937728937729
48:25.203,1.0009765625,-0.2509765625,1.7607421875,-3.44085693359375,-7.598876953125,-29.54864501953125,29.388034188034187,-27.288888888888888,68.22222222222221,-0.2265625,2.0185546875,0.0751953125,-4.302978515625,1.15203857421875,-2.61688232421875,-41.683028083028084,-110.804884004884,-0.7496947496947497,-0.01513671875,1.49853515625,-1.318359375,-1.01470947265625,0.9918212890625,1.45721435546875,-100.9089133089133,-13.644444444444444,-26.08937728937729
48:26.032,1.01953125,-0.10595703125,1.63427734375,8.9111328125,3.387451171875,-10.650634765625,14.694017094017093,-60.57533577533577,79.01782661782661,-0.1650390625,2.0185546875,0.07958984375,-5.9661865234375,1.15203857421875,-0.67901611328125,-42.28278388278388,-112.15433455433455,-2.998778998778999,-0.00537109375,1.5029296875,-1.3251953125,-1.220703125,0.75531005859375,2.01416015625,-100.0092796092796,-14.544078144078144,-27.288888888888888
48:26.909,0.97021484375,-0.35791015625,1.80126953125,8.85772705078125,9.43756103515625,1.5106201171875,29.388034188034187,-69.72161172161172,78.56800976800976,-0.1943359375,2.00439453125,0.0771484375,-0.78582763671875,-11.1541748046875,-0.19073486328125,-40.63345543345543,-110.05518925518925,-0.4498168498168498,-0.0185546875,1.49853515625,-1.333984375,-1.007080078125,0.457763671875,1.708984375,-99.1096459096459,-14.694017094017093,-27.438827838827837
48:27.739,0.97021484375,-0.35791015625,1.80126953125,8.85772705078125,9.43756103515625,1.5106201171875,43.482295482295484,-41.98290598290598,85.61514041514042,-0.2265625,2.00732421875,0.12109375,-4.4708251953125,0.0,-0.81634521484375,-40.63345543345543,-109.0056166056166,1.0495726495726496,-0.00244140625,1.5009765625,-1.32763671875,-0.5645751953125,1.39617919921875,0.64849853515625,-101.50866910866911,-14.843956043956043,-26.539194139194137
48:28.518,1.33740234375,-0.076171875,1.55615234375,3.5552978515625,3.18145751953125,3.34930419921875,43.482295482295484,-41.98290598290598,85.61514041514042,-0.2265625,2.00732421875,0.12109375,-2.41851806640625,-1.36566162109375,0.0152587890625,-40.033699633699634,-110.65494505494505,-1.6493284493284492,-0.00244140625,1.5009765625,-1.32763671875,-0.1678466796875,1.2969970703125,0.12969970703125,-101.05885225885226,-13.044688644688645,-26.539194139194137
48:29.298,0.94970703125,-0.33349609375,1.669921875,-4.03594970703125,-4.0283203125,6.21795654296875,69.42173382173382,-45.58144078144078,85.76507936507936,-0.2216796875,1.99755859375,0.09130859375,-2.41851806640625,-1.36566162109375,0.0152587890625,-40.033699633699634,-110.65494505494505,-1.6493284493284492,-0.01904296875,1.49755859375,-1.328125,-0.1678466796875,1.2969970703125,0.12969970703125,-101.05885225885226,-13.044688644688645,-26.539194139194137
48:30.175,0.89111328125,-0.236328125,1.810546875,1.89208984375,1.19781494140625,1.708984375,37.784615384615385,-69.72161172161172,90.41318681318681,-0.119140625,2.00439453125,0.06005859375,-4.40216064453125,-0.90789794921875,3.27301025390625,-40.63345543345543,-110.5050061050061,0.5997557997557997,-0.00341796875,1.50146484375,-1.32080078125,-0.7781982421875,1.2054443359375,1.312255859375,-101.65860805860805,-15.143833943833943,-28.188522588522588
48:30.955,0.8046875,-0.20556640625,1.82958984375,3.73077392578125,-4.00543212890625,-0.335693359375,25.489621489621488,-33.73626373626374,65.22344322344323,-0.130859375,2.0234375,-0.00732421875,-2.838134765625,0.823974609375,0.396728515625,-41.683028083028084,-111.1047619047619,-2.848840048840049,-0.01220703125,1.5,-1.328125,-1.06048583984375,0.75531005859375,1.6632080078125,-101.20879120879121,-14.694017094017093,-27.13894993894994
48:31.735,0.8046875,-0.20556640625,1.82958984375,3.73077392578125,-4.00543212890625,-0.335693359375,26.23931623931624,-32.98656898656898,67.62246642246642,-0.140625,2.0302734375,0.00146484375,-4.90570068359375,-0.54931640625,0.57220458984375,-40.033699633699634,-113.2039072039072,-4.798046398046398,-0.00439453125,1.50537109375,-1.33935546875,-1.10626220703125,0.81634521484375,1.73187255859375,-100.6090354090354,-12.894749694749695,-26.83907203907204
48:32.564,0.796875,-0.19677734375,1.765625,-1.18255615234375,9.9945068359375,-4.1656494140625,26.23931623931624,-32.98656898656898,67.62246642246642,-0.140625,2.0302734375,0.00146484375,-3.90625,-1.31988525390625,0.48065185546875,-40.033699633699634,-111.7045177045177,-3.7484737484737485,-0.00634765625,1.50244140625,-1.32177734375,-0.9002685546875,0.72479248046875,1.983642578125,-101.20879120879121,-16.193406593406593,-25.78949938949939
48:33.393,0.8056640625,-0.203125,1.9345703125,2.32696533203125,9.0179443359375,-8.11767578125,28.188522588522588,-29.238095238095237,68.37216117216117,-0.1357421875,2.0419921875,0.04931640625,-3.90625,-1.31988525390625,0.48065185546875,-40.033699633699634,-111.7045177045177,-3.7484737484737485,-0.00634765625,1.50244140625,-1.32177734375,-0.9002685546875,0.72479248046875,1.983642578125,-101.20879120879121,-16.193406593406593,-25.78949938949939
48:34.173,0.84326171875,-0.16650390625,1.9248046875,-1.129150390625,-2.4261474609375,0.244140625,27.438827838827837,-28.93821733821734,66.72283272283272,-0.13623046875,2.02197265625,0.0302734375,-1.7852783203125,0.3662109375,1.0528564453125,-41.832967032967034,-112.75409035409035,-4.048351648351648,-0.00732421875,1.509765625,-1.326171875,-1.28936767578125,0.84686279296875,1.88446044921875,-101.65860805860805,-15.443711843711844,-27.88864468864469
48:34.953,0.83544921875,-0.15869140625,1.9189453125,-3.07464599609375,8.392333984375,-0.152587890625,25.18974358974359,-29.088156288156288,64.47374847374847,-0.14208984375,2.01025390625,0.0234375,-2.57110595703125,0.61798095703125,0.64849853515625,-41.38315018315018,-110.804884004884,-4.648107448107448,-0.01318359375,1.50537109375,-1.31982421875,-0.90789794921875,0.79345703125,1.86920166015625,-101.65860805860805,-14.394139194139193,-26.83907203907204
48:35.733,0.83544921875,-0.15869140625,1.9189453125,-3.07464599609375,8.392333984375,-0.152587890625,25.489621489621488,-30.587545787545785,63.12429792429792,-0.16650390625,2.0419921875,0.01611328125,-4.03594970703125,-0.32806396484375,0.4119873046875,-42.73260073260073,-111.85445665445665,-2.848840048840049,-0.01123046875,1.5029296875,-1.32958984375,-1.04522705078125,0.74005126953125,1.64794921875,-101.50866910866911,-14.843956043956043,-26.23931623931624
48:36.513,0.86328125,-0.1572265625,1.83203125,-3.13568115234375,0.1220703125,0.90789794921875,25.489621489621488,-30.587545787545785,63.12429792429792,-0.16650390625,2.0419921875,0.01611328125,-3.31878662109375,-0.3814697265625,0.28228759765625,-41.38315018315018,-111.85445665445665,-3.8984126984126983,-0.01123046875,1.5029296875,-1.32958984375,-0.90789794921875,0.9002685546875,1.8157958984375,-100.6090354090354,-15.143833943833943,-27.13894993894994
48:37.342,0.84521484375,-0.2001953125,1.8154296875,1.10626220703125,3.45611572265625,-0.89263916015625,26.389255189255188,-29.987789987789988,62.37460317460317,-0.15576171875,2.02197265625,0.04638671875,-3.31878662109375,-0.3814697265625,0.28228759765625,-41.38315018315018,-111.85445665445665,-3.8984126984126983,-0.00732421875,1.49658203125,-1.33203125,-0.90789794921875,0.9002685546875,1.8157958984375,-100.6090354090354,-15.143833943833943,-27.13894993894994
48:38.122,0.87890625,-0.15869140625,1.8564453125,-1.02996826171875,1.15966796875,-0.35858154296875,26.689133089133087,-29.687912087912085,62.97435897435897,-0.14404296875,2.03125,0.048828125,-3.0670166015625,0.16021728515625,0.5645751953125,-41.08327228327228,-111.4046398046398,-3.4485958485958483,-0.00439453125,1.49951171875,-1.32568359375,-1.068115234375,1.068115234375,1.8768310546875,-101.05885225885226,-15.293772893772893,-27.288888888888888
48:38.902,0.88623046875,-0.1640625,1.85546875,-0.67901611328125,0.87738037109375,0.03814697265625,26.23931623931624,-31.637118437118435,61.774847374847376,-0.15087890625,2.029296875,0.03955078125,-2.75421142578125,-0.06866455078125,0.92315673828125,-40.63345543345543,-112.3042735042735,-1.4993894993894994,-0.01220703125,1.5009765625,-1.3271484375,-0.80108642578125,0.92315673828125,1.62506103515625,-101.80854700854701,-15.293772893772893,-27.288888888888888
48:39.730,0.88623046875,-0.1640625,1.85546875,-0.67901611328125,0.87738037109375,0.03814697265625,27.738705738705736,-29.987789987789988,63.724053724053725,-0.15478515625,2.029296875,0.01904296875,-3.44085693359375,-0.48065185546875,0.58746337890625,-40.63345543345543,-111.1047619047619,-1.4993894993894994,-0.01123046875,1.4921875,-1.32373046875,-1.24359130859375,0.7781982421875,1.708984375,-101.50866910866911,-13.794383394383393,-27.588766788766787
48:40.511,0.87841796875,-0.1630859375,1.84423828125,-1.22833251953125,1.9378662109375,0.244140625,27.738705738705736,-29.987789987789988,63.724053724053725,-0.15478515625,2.029296875,0.01904296875,-3.11279296875,-0.12969970703125,1.03759765625,-42.73260073260073,-111.1047619047619,-2.548962148962149,-0.01123046875,1.4921875,-1.32373046875,-1.15966796875,0.63323974609375,1.65557861328125,-101.80854700854701,-14.843956043956043,-26.539194139194137
48:41.290,0.87060546875,-0.1591796875,1.86328125,-1.312255859375,1.24359130859375,-0.37384033203125,28.338461538461537,-31.936996336996337,62.52454212454212,-0.1533203125,2.02978515625,0.03076171875,-3.11279296875,-0.12969970703125,1.03759765625,-42.73260073260073,-111.1047619047619,-2.548962148962149,-0.0078125,1.50244140625,-1.3203125,-1.15966796875,0.63323974609375,1.65557861328125,-101.80854700854701,-14.843956043956043,-26.539194139194137
48:42.168,1.044921875,-1.47607421875,0.7958984375,5.706787109375,-7.4310302734375,-6.9732666015625,27.438827838827837,-31.337240537240536,64.32380952380952,-0.3349609375,1.9833984375,0.234375,-6.439208984375,-2.01416015625,-2.03704833984375,-40.78339438339438,-110.65494505494505,-2.399023199023199,-0.00390625,1.50634765625,-1.330078125,-0.70953369140625,0.77056884765625,1.40380859375,-102.85811965811965,-15.293772893772893,-27.288888888888888
48:42.948,1.2568359375,-1.3876953125,0.8681640625,2.532958984375,1.18255615234375,4.87518310546875,60.57533577533577,-10.045909645909646,60.87521367521367,-0.3369140625,1.96435546875,0.20654296875,-1.48773193359375,0.96893310546875,1.4190673828125,-40.63345543345543,-107.2063492063492,3.4485958485958483,-0.0078125,1.50537109375,-1.330078125,-0.93841552734375,1.129150390625,1.79290771484375,-100.75897435897436,-13.794383394383393,-27.288888888888888
48:43.777,1.2568359375,-1.3876953125,0.8681640625,-8.6517333984375,14.82391357421875,-12.3291015625,61.47496947496947,-9.146275946275946,61.17509157509157,-0.1337890625,2.04052734375,-0.048828125,0.42724609375,3.28826904296875,0.93841552734375,-41.832967032967034,-108.1059829059829,2.249084249084249,-0.00390625,1.4970703125,-1.32421875,-1.312255859375,1.18255615234375,1.59454345703125,-99.7094017094017,-15.593650793650793,-27.288888888888888
48:44.557,0.646484375,0.041015625,1.9833984375,-8.6517333984375,14.82391357421875,-12.3291015625,61.47496947496947,-9.146275946275946,61.17509157509157,-0.1337890625,2.04052734375,-0.048828125,-3.1585693359375,-0.41961669921875,0.64849853515625,-41.533089133089135,-113.5037851037851,-4.798046398046398,-0.00390625,1.4970703125,-1.32421875,-0.9765625,0.732421875,1.8310546875,-100.9089133089133,-12.894749694749695,-27.88864468864469
48:45.385,0.75390625,-0.0810546875,1.9287109375,-1.3580322265625,0.1983642578125,0.2593994140625,24.88986568986569,-23.24053724053724,66.12307692307692,-0.12841796875,2.044921875,-0.0263671875,-3.1585693359375,-0.41961669921875,0.64849853515625,-41.533089133089135,-113.5037851037851,-4.798046398046398,-0.009765625,1.50537109375,-1.328125,-0.9765625,0.732421875,1.8310546875,-99.25958485958486,-14.544078144078144,-27.588766788766787
48:46.214,0.73681640625,-0.09033203125,1.91748046875,-0.72479248046875,0.640869140625,-0.2593994140625,24.739926739926737,-25.18974358974359,65.82319902319902,-0.11669921875,2.02685546875,-0.0205078125,-3.21197509765625,-0.19073486328125,1.0528564453125,-40.78339438339438,-112.45421245421245,-4.798046398046398,-0.00146484375,1.50390625,-1.33935546875,-0.74005126953125,0.6561279296875,1.71661376953125,-99.25958485958486,-14.544078144078144,-27.588766788766787
48:46.995,0.8359375,-0.111328125,1.93994140625,0.48065185546875,2.29644775390625,-0.41961669921875,27.13894993894994,-25.639560439560437,68.07228327228327,-0.11376953125,2.02490234375,-0.013671875,-2.410888671875,0.37384033203125,0.95367431640625,-42.28278388278388,-111.7045177045177,-4.498168498168498,-0.0087890625,1.509765625,-1.33251953125,-1.04522705078125,0.98419189453125,2.11334228515625,-101.20879120879121,-13.644444444444444,-27.13894993894994
48:47.774,0.8359375,-0.111328125,1.93994140625,-0.70953369140625,0.78582763671875,0.5645751953125,23.39047619047619,-26.539194139194137,65.52332112332113,-0.12890625,2.02880859375,-0.0087890625,-3.39508056640625,0.26702880859375,0.7781982421875,-40.033699633699634,-111.7045177045177,-4.048351648351648,-0.00732421875,1.5068359375,-1.32421875,-0.8087158203125,0.91552734375,1.67083740234375,-100.9089133089133,-14.394139194139193,-27.13894993894994
48:48.603,0.78125,-0.0927734375,1.91943359375,-0.70953369140625,0.78582763671875,0.5645751953125,23.39047619047619,-26.539194139194137,65.52332112332113,-0.12890625,2.02880859375,-0.0087890625,-2.51007080078125,0.0,1.13677978515625,-39.583882783882785,-112.6041514041514,-4.947985347985348,-0.00732421875,1.5068359375,-1.32421875,-0.96893310546875,0.9918212890625,1.495361328125,-100.15921855921856,-14.394139194139193,-26.83907203907204
48:49.432,0.8076171875,-0.13330078125,1.96142578125,2.044677734375,7.354736328125,1.3885498046875,23.09059829059829,-26.98901098901099,64.47374847374847,-0.13037109375,2.03564453125,-0.00634765625,-2.51007080078125,0.0,1.13677978515625,-41.38315018315018,-112.6041514041514,-4.348229548229548,-0.005859375,1.5,-1.33447265625,-0.96893310546875,0.9918212890625,1.495361328125,-101.50866910866911,-14.244200244200243,-28.03858363858364
48:50.212,0.81884765625,-0.1513671875,1.99462890625,-0.6256103515625,-2.83050537109375,3.326416015625,22.49084249084249,-25.33968253968254,64.62368742368741,-0.10791015625,2.0400390625,-0.00537109375,-3.33404541015625,1.4801025390625,1.13677978515625,-41.38315018315018,-112.6041514041514,-4.348229548229548,-0.009765625,1.5078125,-1.3193359375,-0.84686279296875,0.86212158203125,1.52587890625,-101.50866910866911,-14.244200244200243,-28.03858363858364
